Seq,Acc_X_Min,Acc_X_Max,Acc_X_Avg,Acc_X_Variance,Acc_X_StdDev,Acc_X_Range,Acc_X_Skew,Acc_X_Kurtosis,Acc_X_Energy,Acc_Y_Min,Acc_Y_Max,Acc_Y_Avg,Acc_Y_Variance,Acc_Y_StdDev,Acc_Y_Range,Acc_Y_Skew,Acc_Y_Kurtosis,Acc_Y_Energy,Acc_Z_Min,Acc_Z_Max,Acc_Z_Avg,Acc_Z_Variance,Acc_Z_StdDev,Acc_Z_Range,Acc_Z_Skew,Acc_Z_Kurtosis,Acc_Z_Energy,Gyro_X_Min,Gyro_X_Max,Gyro_X_Avg,Gyro_X_Variance,Gyro_X_StdDev,Gyro_X_Range,Gyro_X_Skew,Gyro_X_Kurtosis,Gyro_X_Energy,Gyro_Y_Min,Gyro_Y_Max,Gyro_Y_Avg,Gyro_Y_Variance,Gyro_Y_StdDev,Gyro_Y_Range,Gyro_Y_Skew,Gyro_Y_Kurtosis,Gyro_Y_Energy,Gyro_Z_Min,Gyro_Z_Max,Gyro_Z_Avg,Gyro_Z_Variance,Gyro_Z_StdDev,Gyro_Z_Range,Gyro_Z_Skew,Gyro_Z_Kurtosis,Gyro_Z_Energy,Mag_X_Min,Mag_X_Max,Mag_X_Avg,Mag_X_Variance,Mag_X_StdDev,Mag_X_Range,Mag_X_Skew,Mag_X_Kurtosis,Mag_X_Energy,Mag_Y_Min,Mag_Y_Max,Mag_Y_Avg,Mag_Y_Variance,Mag_Y_StdDev,Mag_Y_Range,Mag_Y_Skew,Mag_Y_Kurtosis,Mag_Y_Energy,Mag_Z_Min,Mag_Z_Max,Mag_Z_Avg,Mag_Z_Variance,Mag_Z_StdDev,Mag_Z_Range,Mag_Z_Skew,Mag_Z_Kurtosis,Mag_Z_Energy
0.0,-1.01648,0.0,-1.01502,0.0,0.00068,1.01648,0.0,3.40059,1.03026,-0.00732,0.0,-0.00602,0.0,0.0006,0.00732,0.0,4.54617,4e-05,-0.12476,0.0,-0.10948,1e-05,0.00288,0.12476,-0.0,14.37223,0.01199,0.0,1.34277,1.11511,0.0102,0.10098,1.34277,-0.0002,2.77709,1.25367,0.0,2.92969,2.62512,0.0095,0.09746,2.92969,0.00022,2.91455,6.90076,0.0,2.01416,1.76025,0.00803,0.08959,2.01416,0.0003,3.24022,3.10652,-4.54102,0.0,-3.54944,0.14114,0.37569,4.54102,-0.00014,3.02368,12.73965,0.0,33.1665,32.43665,0.0868,0.29461,33.1665,-0.00162,2.33212,1052.2229,-3.41797,0.97656,-1.42163,0.56723,0.75315,4.39453,0.02951,3.29807,2.58826
1.0,-1.01648,0.0,-1.01501,0.0,0.00068,1.01648,0.0,3.33663,1.03024,-0.00732,0.0,-0.00602,0.0,0.0006,0.00732,0.0,4.54617,4e-05,-0.12476,0.0,-0.10932,1e-05,0.00244,0.12476,-0.0,13.34533,0.01196,0.0,1.34277,1.11511,0.0102,0.10098,1.34277,-0.0002,2.77709,1.25367,0.0,2.92969,2.62634,0.00965,0.09821,2.92969,0.0002,2.83896,6.90732,0.0,2.01416,1.76025,0.00803,0.08959,2.01416,0.0003,3.24022,3.10652,-4.54102,0.0,-3.55444,0.14108,0.37561,4.54102,0.00166,3.02657,12.77515,0.0,33.1665,32.44727,0.08469,0.29101,33.1665,-0.00104,2.28594,1052.90991,-3.41797,0.97656,-1.40796,0.57621,0.75908,4.39453,0.01687,3.22337,2.55856
2.0,-1.01648,0.0,-1.01499,0.0,0.00069,1.01648,0.0,3.23754,1.0302,-0.00793,0.0,-0.00604,0.0,0.00063,0.00793,0.0,4.65426,4e-05,-0.12476,0.0,-0.10917,0.0,0.00206,0.12476,-0.0,10.58274,0.01192,0.0,1.34277,1.11572,0.01014,0.10069,1.34277,-0.00022,2.8102,1.25498,0.0,2.92969,2.62756,0.00964,0.09818,2.92969,0.00017,2.83233,6.91373,0.0,2.01416,1.7627,0.00807,0.08982,2.01416,0.00027,3.18335,3.11516,-4.54102,0.0,-3.55786,0.13822,0.37178,4.54102,0.00119,3.09294,12.7966,0.0,33.1665,32.45007,0.08388,0.28963,33.1665,-0.00152,2.32274,1053.09131,-3.41797,0.97656,-1.41003,0.57717,0.75972,4.39453,0.0201,3.21342,2.56537
3.0,-1.01648,0.0,-1.015,0.0,0.00069,1.01648,0.0,3.27797,1.03022,-0.00793,0.0,-0.00603,0.0,0.00063,0.00793,0.0,4.68238,4e-05,-0.12476,0.0,-0.10907,0.0,0.00179,0.12476,-0.0,8.85913,0.0119,0.0,1.34277,1.11572,0.01014,0.10069,1.34277,-0.00022,2.8102,1.25498,0.0,2.92969,2.62939,0.00929,0.09638,2.92969,0.00018,2.89285,6.923,0.0,2.01416,1.76453,0.0082,0.09057,2.01416,0.00025,3.08987,3.12176,-4.54102,0.0,-3.56348,0.13634,0.36924,4.54102,0.00259,3.15942,12.83471,0.0,33.1665,32.45471,0.08281,0.28776,33.1665,-0.00225,2.3675,1053.39111,-3.41797,0.97656,-1.41614,0.56946,0.75463,4.39453,0.02272,3.27925,2.57491
4.0,-1.01648,0.0,-1.01503,0.0,0.00067,1.01648,0.0,2.96915,1.03029,-0.00793,0.0,-0.00602,0.0,0.00063,0.00793,0.0,4.65598,4e-05,-0.12476,0.0,-0.10897,0.0,0.00161,0.12476,-0.0,8.25948,0.01188,0.0,1.34277,1.11694,0.0101,0.10048,1.34277,-0.00025,2.84197,1.25766,0.0,2.92969,2.63184,0.00896,0.09467,2.92969,0.00018,2.92765,6.93552,0.0,2.01416,1.76575,0.00821,0.09063,2.01416,0.00023,3.06497,3.12608,-4.54102,0.0,-3.56702,0.13577,0.36848,4.54102,0.00386,3.18603,12.85938,0.0,33.1665,32.45837,0.08318,0.28841,33.1665,-0.00301,2.35582,1053.62927,-3.41797,0.97656,-1.43994,0.59068,0.76856,4.39453,0.01624,3.24961,2.66411
5.0,-1.01648,0.0,-1.01503,0.0,0.00067,1.01648,0.0,2.96427,1.03029,-0.00793,0.0,-0.00601,0.0,0.00063,0.00793,0.0,4.6018,4e-05,-0.12476,0.0,-0.1089,0.0,0.00145,0.12476,-0.0,7.78996,0.01186,0.0,1.34277,1.11511,0.01005,0.10024,1.34277,-0.00021,2.84458,1.25352,0.0,2.92969,2.63367,0.00882,0.09391,2.92969,0.00016,2.97038,6.94502,0.0,2.01416,1.76758,0.00789,0.08883,2.01416,0.00024,3.12601,3.13222,-4.54102,0.0,-3.57153,0.13292,0.36458,4.54102,0.0041,3.27967,12.88877,0.0,33.1665,32.45471,0.08227,0.28683,33.1665,-0.00239,2.38916,1053.3905,-3.41797,0.97656,-1.4408,0.58961,0.76786,4.39453,0.01674,3.25917,2.6655
6.0,-1.01648,0.0,-1.01504,0.0,0.00066,1.01648,0.0,3.03993,1.03031,-0.00793,0.0,-0.006,0.0,0.00064,0.00793,0.0,4.41307,4e-05,-0.12476,0.0,-0.10884,0.0,0.00134,0.12476,-0.0,8.05682,0.01185,0.0,1.34277,1.11511,0.01005,0.10024,1.34277,-0.00021,2.84458,1.25352,0.0,2.92969,2.63367,0.00882,0.09391,2.92969,0.00016,2.97038,6.94502,0.0,2.01416,1.7688,0.0079,0.08886,2.01416,0.00022,3.10519,3.13655,-4.54102,0.0,-3.5802,0.13283,0.36445,4.54102,0.00592,3.2921,12.95066,0.0,33.1665,32.45642,0.08078,0.28422,33.1665,-0.00182,2.38996,1053.5,-3.41797,0.97656,-1.44458,0.58529,0.76505,4.39453,0.01958,3.2991,2.67211
7.0,-1.01648,0.0,-1.01503,0.0,0.00067,1.01648,0.0,2.94875,1.03029,-0.00793,0.0,-0.00599,0.0,0.00065,0.00793,0.0,4.27235,4e-05,-0.12476,0.0,-0.10879,0.0,0.00123,0.12476,-0.0,8.01976,0.01184,0.0,1.34277,1.11633,0.01015,0.10077,1.34277,-0.00023,2.80701,1.25635,0.0,2.92969,2.63306,0.00879,0.09377,2.92969,0.00017,2.99258,6.94178,0.0,2.01416,1.7688,0.0079,0.08886,2.01416,0.00022,3.10519,3.13655,-4.54102,0.0,-3.57971,0.13314,0.36488,4.54102,0.00588,3.27964,12.94748,0.0,33.1665,32.46619,0.08144,0.28538,33.1665,-0.00183,2.4098,1054.13464,-3.41797,0.97656,-1.44055,0.59303,0.77009,4.39453,0.02377,3.25495,2.66822
8.0,-1.01648,0.0,-1.01504,0.0,0.00067,1.01648,0.0,2.90682,1.0303,-0.00793,0.0,-0.00599,0.0,0.00064,0.00793,0.0,4.32931,4e-05,-0.12476,0.0,-0.10875,0.0,0.00111,0.12476,-0.0,6.84318,0.01183,0.0,1.34277,1.11755,0.01011,0.10055,1.34277,-0.00026,2.84023,1.25904,0.0,2.92969,2.63367,0.00882,0.09391,2.92969,0.00016,2.97038,6.94502,0.0,2.01416,1.7688,0.0079,0.08886,2.01416,0.00022,3.10519,3.13655,-4.54102,0.0,-3.58765,0.13293,0.3646,4.54102,0.00779,3.29849,13.00414,0.0,33.1665,32.46985,0.08226,0.28682,33.1665,-0.00247,2.37766,1054.37341,-3.41797,0.97656,-1.43896,0.59278,0.76992,4.39453,0.02099,3.25732,2.6634
9.0,-1.01648,0.0,-1.01505,0.0,0.00066,1.01648,0.0,3.00369,1.03033,-0.00793,0.0,-0.00598,0.0,0.00064,0.00793,0.0,4.39812,4e-05,-0.12476,0.0,-0.1087,0.0,0.00099,0.12476,-0.0,4.85212,0.01182,0.0,1.34277,1.11755,0.01011,0.10055,1.34277,-0.00026,2.84023,1.25904,0.0,2.92969,2.63489,0.0085,0.09218,2.92969,0.0002,2.99951,6.95113,0.0,2.01416,1.77063,0.00756,0.08696,2.01416,0.00023,3.16167,3.14269,-4.54102,0.0,-3.59753,0.13081,0.36167,4.54102,0.00895,3.36232,13.07306,0.0,33.1665,32.47644,0.0832,0.28844,33.1665,-0.00329,2.36623,1054.80237,-3.41797,0.97656,-1.44995,0.58947,0.76777,4.39453,0.03641,3.29142,2.69183
10.0,-1.01648,0.0,-1.01503,0.0,0.0007,1.01648,0.0,3.79567,1.03029,-0.00793,0.0,-0.00599,0.0,0.00064,0.00793,0.0,4.41839,4e-05,-0.12476,0.0,-0.10866,0.0,0.00092,0.12476,-0.0,4.01071,0.01181,0.0,1.34277,1.11572,0.01029,0.10143,1.34277,-0.00024,2.76164,1.25512,0.0,2.92969,2.63367,0.00837,0.0915,2.92969,0.00021,3.0814,6.94457,0.0,2.01416,1.77063,0.00756,0.08696,2.01416,0.00023,3.16167,3.14269,-4.54102,0.0,-3.59937,0.13061,0.36141,4.54102,0.00963,3.37593,13.08605,0.0,33.1665,32.48499,0.0824,0.28706,33.1665,-0.0038,2.38672,1055.35669,-3.41797,0.97656,-1.46338,0.58051,0.76191,4.39453,0.04944,3.37077,2.72199
11.0,-1.01648,0.0,-1.01501,0.0,0.00072,1.01648,0.0,3.6399,1.03025,-0.00793,0.0,-0.00598,0.0,0.00064,0.00793,0.0,4.43394,4e-05,-0.12476,0.0,-0.10863,0.0,0.00087,0.12476,-0.0,3.64124,0.0118,0.0,1.34277,1.11267,0.01094,0.1046,1.34277,-0.00032,2.79285,1.24898,0.0,2.92969,2.63489,0.00835,0.09137,2.92969,0.00019,3.08242,6.95098,0.0,2.01416,1.77063,0.00756,0.08696,2.01416,0.00023,3.16167,3.14269,-4.54102,0.0,-3.60193,0.12996,0.3605,4.54102,0.01047,3.4136,13.10385,0.0,33.1665,32.48645,0.08171,0.28585,33.1665,-0.00391,2.41799,1055.45129,-3.41797,0.97656,-1.474,0.57511,0.75836,4.39453,0.0628,3.43023,2.74779
12.0,-1.01648,0.0,-1.01501,0.0,0.00073,1.01648,0.0,3.55808,1.03024,-0.00793,0.0,-0.00599,0.0,0.00064,0.00793,0.0,4.48309,4e-05,-0.12476,0.0,-0.10859,0.0,0.00081,0.12476,-0.0,2.75123,0.01179,0.0,1.34277,1.11572,0.01141,0.1068,1.34277,-0.00029,2.80609,1.25624,0.0,2.92969,2.63489,0.00835,0.09137,2.92969,0.00019,3.08242,6.95098,0.0,2.01416,1.76941,0.00756,0.08696,2.01416,0.00026,3.18264,3.13837,-4.54102,0.0,-3.59937,0.13406,0.36614,4.54102,0.01441,3.49972,13.08949,0.0,33.1665,32.48914,0.08169,0.28581,33.1665,-0.00452,2.42619,1055.62573,-3.41797,0.97656,-1.48694,0.55007,0.74167,4.39453,0.04287,3.53442,2.76106
13.0,-1.01648,0.0,-1.015,0.0,0.00073,1.01648,0.0,3.52979,1.03023,-0.00793,0.0,-0.00599,0.0,0.00064,0.00793,0.0,4.53502,4e-05,-0.12476,0.0,-0.10859,0.0,0.0008,0.12476,-0.0,2.81625,0.01179,0.0,1.34277,1.11389,0.01113,0.1055,1.34277,-0.00028,2.86741,1.25188,0.0,2.92969,2.63306,0.00827,0.09095,2.92969,0.00021,3.14177,6.94126,0.0,2.01416,1.76758,0.007,0.08365,2.01416,0.00015,3.0066,3.13133,-4.54102,0.0,-3.60107,0.13435,0.36654,4.54102,0.01504,3.49043,13.10209,0.0,33.1665,32.48669,0.08243,0.2871,33.1665,-0.00412,2.38487,1055.46777,-3.41797,0.97656,-1.49963,0.54873,0.74076,4.39453,0.05857,3.55667,2.79763
14.0,-1.01648,0.0,-1.015,0.0,0.00072,1.01648,0.0,3.56803,1.03022,-0.00793,0.0,-0.00599,0.0,0.00064,0.00793,0.0,4.39579,4e-05,-0.12476,0.0,-0.10857,0.0,0.00079,0.12476,-0.0,2.90315,0.01179,0.0,1.34277,1.1145,0.0113,0.10629,1.34277,-0.00026,2.83998,1.25341,0.0,2.92969,2.63245,0.00817,0.09039,2.92969,0.00022,3.20438,6.93794,0.0,2.01416,1.76758,0.007,0.08365,2.01416,0.00015,3.0066,3.13133,-4.54102,0.0,-3.5968,0.14106,0.37558,4.54102,0.02138,3.59721,13.07805,0.0,33.1665,32.48743,0.08247,0.28718,33.1665,-0.0043,2.38396,1055.51538,-3.41797,0.97656,-1.49963,0.54873,0.74076,4.39453,0.05857,3.55667,2.79763
15.0,-1.01648,0.0,-1.01502,0.0,0.00073,1.01648,0.0,3.63448,1.03027,-0.00793,0.0,-0.00598,0.0,0.00064,0.00793,0.0,4.45209,4e-05,-0.12476,0.0,-0.10858,0.0,0.0008,0.12476,-0.0,2.83568,0.01179,0.0,1.34277,1.11267,0.01146,0.10707,1.34277,-0.00023,2.77081,1.2495,0.0,2.92969,2.63306,0.0082,0.09054,2.92969,0.0002,3.17668,6.94118,0.0,2.01416,1.76758,0.007,0.08365,2.01416,0.00015,3.0066,3.13133,-4.54102,0.0,-3.59985,0.13873,0.37247,4.54102,0.02125,3.69165,13.09768,0.0,33.1665,32.48999,0.08066,0.28401,33.1665,-0.00392,2.41996,1055.68018,-3.41797,0.97656,-1.49536,0.54687,0.73951,4.39453,0.05235,3.57657,2.78297
16.0,-1.01648,0.0,-1.01503,0.0,0.00073,1.01648,0.0,3.59501,1.03028,-0.00793,0.0,-0.00598,0.0,0.00064,0.00793,0.0,4.37445,4e-05,-0.12476,0.0,-0.10857,0.0,0.00078,0.12476,-0.0,2.85903,0.01179,0.0,1.34277,1.11145,0.0115,0.10722,1.34277,-0.00019,2.7492,1.24682,0.0,2.92969,2.63428,0.00832,0.09123,2.92969,0.00019,3.09044,6.94774,0.0,2.01416,1.76575,0.00732,0.08556,2.01416,0.00013,2.96132,3.12518,-4.54102,0.0,-3.59802,0.13928,0.37321,4.54102,0.02063,3.65636,13.08505,0.0,33.1665,32.49023,0.0806,0.2839,33.1665,-0.00397,2.42401,1055.69592,-3.41797,0.97656,-1.50354,0.53782,0.73336,4.39453,0.05677,3.67452,2.79845
17.0,-1.01648,0.0,-1.01502,0.0,0.00073,1.01648,0.0,3.58654,1.03027,-0.00793,0.0,-0.00598,0.0,0.00064,0.00793,0.0,4.32496,4e-05,-0.12476,0.0,-0.10856,0.0,0.00077,0.12476,-0.0,2.95805,0.01178,0.0,1.34277,1.11084,0.01147,0.10712,1.34277,-0.00017,2.75595,1.24544,0.0,2.92969,2.63245,0.00824,0.0908,2.92969,0.00021,3.15122,6.93802,0.0,2.01416,1.76575,0.00732,0.08556,2.01416,0.00013,2.96132,3.12518,-4.54102,0.0,-3.59363,0.14009,0.37429,4.54102,0.01911,3.60099,13.05426,0.0,33.1665,32.49023,0.0806,0.2839,33.1665,-0.00397,2.42401,1055.69592,-3.41797,0.97656,-1.51172,0.52903,0.72734,4.39453,0.06141,3.77589,2.81432
18.0,-1.01648,0.0,-1.01503,0.0,0.00073,1.01648,0.0,3.57985,1.03029,-0.00793,0.0,-0.00598,0.0,0.00064,0.00793,0.0,4.32496,4e-05,-0.12476,0.0,-0.10856,0.0,0.00077,0.12476,-0.0,2.95805,0.01178,0.0,1.34277,1.11023,0.01145,0.10701,1.34277,-0.00015,2.76344,1.24406,0.0,2.92969,2.63184,0.00814,0.09023,2.92969,0.00022,3.21431,6.9347,0.0,2.01416,1.76636,0.00736,0.08581,2.01416,0.00012,2.92511,3.12738,-4.54102,0.0,-3.59656,0.14084,0.37529,4.54102,0.02014,3.57718,13.07607,0.0,33.1665,32.48547,0.07966,0.28223,33.1665,-0.00324,2.4511,1055.38574,-3.41797,0.97656,-1.52295,0.521,0.7218,4.39453,0.07125,3.87798,2.84037
19.0,-1.01648,0.0,-1.01504,0.0,0.00073,1.01648,0.0,3.61392,1.0303,-0.00793,0.0,-0.00598,0.0,0.00065,0.00793,0.0,4.30147,4e-05,-0.12476,0.0,-0.10856,0.0,0.00077,0.12476,-0.0,2.97149,0.01179,0.0,1.34277,1.10962,0.0115,0.10725,1.34277,-0.00013,2.73839,1.24276,0.0,2.92969,2.63184,0.00814,0.09023,2.92969,0.00022,3.21431,6.9347,0.0,2.01416,1.76514,0.00705,0.08399,2.01416,9e-05,2.95261,3.12276,-4.54102,0.0,-3.60303,0.13936,0.37331,4.54102,0.02192,3.66381,13.12117,0.0,33.1665,32.48828,0.07843,0.28006,33.1665,-0.00345,2.50753,1055.56689,-3.41797,0.97656,-1.52747,0.51896,0.72039,4.39453,0.07738,3.91189,2.85211
20.0,-1.01648,0.0,-1.01502,0.0,0.00074,1.01648,0.0,3.46487,1.03028,-0.00793,0.0,-0.00598,0.0,0.00065,0.00793,0.0,4.26337,4e-05,-0.12476,0.0,-0.10856,0.0,0.00077,0.12476,-0.0,2.96164,0.01179,0.0,1.34277,1.10779,0.0112,0.10585,1.34277,-0.00012,2.80723,1.2384,0.0,2.92969,2.63062,0.00801,0.0895,2.92969,0.00023,3.31104,6.92814,0.0,2.01416,1.76575,0.0071,0.08424,2.01416,8e-05,2.91687,3.12496,-4.54102,0.0,-3.60864,0.14164,0.37635,4.54102,0.02316,3.5994,13.16394,0.0,33.1665,32.48889,0.07885,0.28081,33.1665,-0.00338,2.49823,1055.60693,-3.41797,0.97656,-1.52283,0.52122,0.72196,4.39453,0.07122,3.87487,2.84022
21.0,-1.01648,0.0,-1.01502,0.0,0.00074,1.01648,0.0,3.46487,1.03028,-0.00793,0.0,-0.00599,0.0,0.00065,0.00793,0.0,4.2174,4e-05,-0.12476,0.0,-0.10854,0.0,0.00078,0.12476,-0.0,2.94055,0.01178,0.0,1.34277,1.10901,0.01118,0.10574,1.34277,-0.00016,2.82332,1.24108,0.0,2.92969,2.63184,0.00814,0.09023,2.92969,0.00022,3.21431,6.9347,0.0,2.01416,1.76514,0.00713,0.08443,2.01416,9e-05,2.89689,3.12284,-4.54102,0.0,-3.60486,0.14108,0.37561,4.54102,0.02175,3.60852,13.13609,0.0,33.1665,32.48596,0.07573,0.27519,33.1665,-0.00525,2.36752,1055.41357,-3.41797,0.97656,-1.53186,0.50642,0.71163,4.39453,0.06511,4.01327,2.85301
22.0,-1.01648,0.0,-1.01502,0.0,0.00074,1.01648,0.0,3.49987,1.03027,-0.00793,0.0,-0.00599,0.0,0.00066,0.00793,0.0,4.08116,4e-05,-0.12476,0.0,-0.10854,0.0,0.00078,0.12476,-0.0,2.94015,0.01178,0.0,1.34277,1.1084,0.01116,0.10562,1.34277,-0.00014,2.83246,1.2397,0.0,2.92969,2.63306,0.00797,0.0893,2.92969,0.00021,3.29025,6.94096,0.0,2.01416,1.76636,0.00729,0.08537,2.01416,8e-05,2.81183,3.12731,-4.54102,0.0,-3.60632,0.14103,0.37554,4.54102,0.02236,3.6175,13.1466,0.0,33.1665,32.48657,0.0762,0.27604,33.1665,-0.00513,2.36432,1055.45361,-3.41797,0.97656,-1.54761,0.49618,0.7044,4.39453,0.07403,4.13807,2.89127
23.0,-1.01648,0.0,-1.01504,0.0,0.00074,1.01648,0.0,3.54891,1.0303,-0.00793,0.0,-0.00599,0.0,0.00066,0.00793,0.0,3.9901,4e-05,-0.12476,0.0,-0.10854,0.0,0.00078,0.12476,-0.0,2.96357,0.01178,0.0,1.34277,1.10962,0.01098,0.10479,1.34277,-0.00016,2.90368,1.24223,0.0,2.92969,2.63306,0.00797,0.0893,2.92969,0.00021,3.29025,6.94096,0.0,2.01416,1.76758,0.0073,0.08541,2.01416,6e-05,2.8008,3.13163,-4.54102,0.0,-3.60901,0.141,0.37549,4.54102,0.02345,3.63163,13.16594,0.0,33.1665,32.4928,0.07376,0.27158,33.1665,-0.00521,2.42563,1055.85571,-3.41797,0.97656,-1.54163,0.50699,0.71203,4.39453,0.08022,4.03252,2.8836
24.0,-1.01648,0.0,-1.01503,0.0,0.00073,1.01648,0.0,3.57134,1.0303,-0.00793,0.0,-0.00599,0.0,0.00066,0.00793,0.0,3.98643,4e-05,-0.12476,0.0,-0.10854,0.0,0.00078,0.12476,-0.0,2.98995,0.01178,0.0,1.34277,1.1084,0.01101,0.10491,1.34277,-0.00012,2.88625,1.23955,0.0,2.92969,2.63245,0.00795,0.08914,2.92969,0.00022,3.31991,6.93772,0.0,2.01416,1.76697,0.0074,0.08605,2.01416,6e-05,2.75681,3.12958,-4.54102,0.0,-3.61438,0.13734,0.3706,4.54102,0.02344,3.78138,13.20108,0.0,33.1665,32.48877,0.07466,0.27323,33.1665,-0.00462,2.37045,1055.59497,-3.41797,0.97656,-1.54175,0.50701,0.71204,4.39453,0.08041,4.03238,2.88399
25.0,-1.01648,0.0,-1.01504,0.0,0.00074,1.01648,0.0,3.55882,1.0303,-0.00793,0.0,-0.00598,0.0,0.00067,0.00793,0.0,3.94165,4e-05,-0.12476,0.0,-0.10853,0.0,0.00077,0.12476,-0.0,3.07699,0.01178,0.0,1.34277,1.10901,0.01111,0.10538,1.34277,-0.00013,2.84951,1.24101,0.0,2.92969,2.63367,0.00807,0.08986,2.92969,0.00021,3.22477,6.94427,0.0,2.01416,1.76636,0.00751,0.08667,2.01416,6e-05,2.714,3.12753,-4.54102,0.0,-3.61243,0.13796,0.37143,4.54102,0.0228,3.74023,13.18759,0.0,33.1665,32.49048,0.07505,0.27395,33.1665,-0.00493,2.35429,1055.7063,-3.41797,0.97656,-1.55603,0.53372,0.73056,4.39453,0.05794,3.91236,2.95495
26.0,-1.01648,0.0,-1.01503,0.0,0.00073,1.01648,0.0,3.58618,1.03028,-0.00793,0.0,-0.00598,0.0,0.00067,0.00793,0.0,3.90147,4e-05,-0.12476,0.0,-0.10851,0.0,0.00077,0.12476,-0.0,3.0713,0.01178,0.0,1.34277,1.1084,0.01093,0.10455,1.34277,-0.00015,2.87622,1.23948,0.0,2.92969,2.6355,0.00815,0.09027,2.92969,0.00018,3.16425,6.954,0.0,2.01416,1.76697,0.00755,0.08691,2.01416,4e-05,2.68526,3.12973,-4.54102,0.0,-3.61816,0.13549,0.36809,4.54102,0.02388,3.87256,13.2266,0.0,33.1665,32.49695,0.07151,0.26742,33.1665,-0.00422,2.36809,1056.12329,-3.41797,0.97656,-1.5686,0.51823,0.71988,4.39453,0.05849,4.07133,2.97874
27.0,-1.01648,0.0,-1.01503,0.0,0.00073,1.01648,0.0,3.57199,1.03028,-0.00793,0.0,-0.00597,0.0,0.00066,0.00793,0.0,3.97478,4e-05,-0.12476,0.0,-0.1085,0.0,0.00076,0.12476,-0.0,3.141,0.01177,0.0,1.34277,1.10901,0.01096,0.10467,1.34277,-0.00017,2.86691,1.24086,0.0,2.92969,2.63489,0.00805,0.08973,2.92969,0.00018,3.22641,6.95068,0.0,2.01416,1.76697,0.00755,0.08691,2.01416,4e-05,2.68526,3.12973,-4.54102,0.0,-3.62048,0.1343,0.36647,4.54102,0.02433,3.94338,13.2422,0.0,33.1665,32.50122,0.07122,0.26687,33.1665,-0.00493,2.3977,1056.40076,-3.41797,0.97656,-1.57202,0.51867,0.72019,4.39453,0.06366,4.06752,2.98992
28.0,-1.01648,0.0,-1.01502,0.0,0.00073,1.01648,0.0,3.57982,1.03026,-0.00793,0.0,-0.00599,0.0,0.00066,0.00793,0.0,4.07637,4e-05,-0.12476,0.0,-0.10849,0.0,0.00077,0.12476,-0.0,3.06961,0.01177,0.0,1.34277,1.10901,0.01096,0.10467,1.34277,-0.00017,2.86691,1.24086,0.0,2.92969,2.63306,0.0082,0.09054,2.92969,0.0002,3.17668,6.94118,0.0,2.01416,1.7688,0.00745,0.08631,2.01416,2e-05,2.72189,3.1361,-4.54102,0.0,-3.63416,0.13992,0.37406,4.54102,0.02183,3.98991,13.34701,0.0,33.1665,32.50269,0.07041,0.26535,33.1665,-0.0049,2.43234,1056.49524,-3.41797,0.97656,-1.56042,0.51267,0.71601,4.39453,0.05195,4.1347,2.9476
29.0,-1.01648,0.0,-1.01501,0.0,0.00073,1.01648,0.0,3.51115,1.03025,-0.00793,0.0,-0.00599,0.0,0.00066,0.00793,0.0,4.07637,4e-05,-0.12476,0.0,-0.10849,0.0,0.00077,0.12476,-0.0,3.05703,0.01177,0.0,1.34277,1.11023,0.01123,0.10596,1.34277,-0.00016,2.80549,1.24384,0.0,2.92969,2.63367,0.00815,0.09027,2.92969,0.00019,3.20342,6.94435,0.0,2.01416,1.76941,0.00749,0.08653,2.01416,1e-05,2.69595,3.1383,-4.54102,0.0,-3.63391,0.14005,0.37423,4.54102,0.02177,3.9826,13.34536,0.0,33.1665,32.50208,0.07036,0.26525,33.1665,-0.00477,2.4339,1056.45557,-3.41797,0.97656,-1.5697,0.50538,0.7109,4.39453,0.05982,4.24193,2.96934
30.0,-1.01648,0.0,-1.01504,0.0,0.00072,1.01648,0.0,3.58383,1.03031,-0.00793,0.0,-0.00599,0.0,0.00066,0.00793,0.0,4.04641,4e-05,-0.12476,0.0,-0.1085,0.0,0.00077,0.12476,-0.0,3.07023,0.01177,0.0,1.34277,1.10901,0.0114,0.10679,1.34277,-0.00014,2.73815,1.2413,0.0,2.92969,2.63367,0.00815,0.09027,2.92969,0.00019,3.20342,6.94435,0.0,2.01416,1.76941,0.00749,0.08653,2.01416,1e-05,2.69595,3.1383,-4.54102,0.0,-3.63489,0.14022,0.37446,4.54102,0.02216,3.97731,13.35263,0.0,33.1665,32.50842,0.06837,0.26147,33.1665,-0.00499,2.49749,1056.86621,-3.41797,0.97656,-1.55591,0.49074,0.70053,4.39453,0.05742,4.39332,2.91159
31.0,-1.01648,0.0,-1.01505,0.0,0.00073,1.01648,0.0,3.51396,1.03033,-0.00793,0.0,-0.00598,0.0,0.00066,0.00793,0.0,4.0058,4e-05,-0.12476,0.0,-0.10852,0.0,0.00078,0.12476,-0.0,2.98991,0.01178,0.0,1.34277,1.10962,0.01143,0.1069,1.34277,-0.00016,2.72985,1.24268,0.0,2.92969,2.63367,0.00815,0.09027,2.92969,0.00019,3.20342,6.94435,0.0,2.01416,1.76941,0.00749,0.08653,2.01416,1e-05,2.69595,3.1383,-4.54102,0.0,-3.63635,0.14058,0.37494,4.54102,0.0227,3.96417,13.36364,0.0,33.1665,32.51514,0.06872,0.26214,33.1665,-0.0056,2.51901,1057.3031,-3.41797,0.97656,-1.54382,0.46019,0.67837,4.39453,0.10251,4.41157,2.84358
32.0,-1.01648,0.0,-1.01504,0.0,0.00074,1.01648,0.0,3.44491,1.0303,-0.00793,0.0,-0.00598,0.0,0.00066,0.00793,0.0,3.96403,4e-05,-0.12476,0.0,-0.10854,0.0,0.00079,0.12476,-0.0,2.92398,0.01178,0.0,1.34277,1.10901,0.01133,0.10644,1.34277,-0.00015,2.76318,1.24123,0.0,2.92969,2.63367,0.00815,0.09027,2.92969,0.00019,3.20342,6.94435,0.0,2.01416,1.77002,0.00753,0.08675,2.01416,-0.0,2.67131,3.14049,-4.54102,0.0,-3.63513,0.1401,0.3743,4.54102,0.02233,3.98378,13.35428,0.0,33.1665,32.51331,0.06912,0.26291,33.1665,-0.0053,2.4847,1057.18445,-3.41797,0.97656,-1.54517,0.46124,0.67914,4.39453,0.10374,4.39569,2.84877
33.0,-1.01648,0.0,-1.01503,0.0,0.00073,1.01648,0.0,3.42877,1.03028,-0.00793,0.0,-0.00597,0.0,0.00065,0.00793,0.0,4.08366,4e-05,-0.12476,0.0,-0.10854,0.0,0.00079,0.12476,-0.0,2.92398,0.01178,0.0,1.34277,1.10779,0.01135,0.10655,1.34277,-0.00011,2.74796,1.23855,0.0,2.92969,2.63245,0.00802,0.08956,2.92969,0.00021,3.29589,6.93779,0.0,2.01416,1.77002,0.00753,0.08675,2.01416,0.0,2.67131,3.14049,-4.54102,0.0,-3.63464,0.13987,0.374,4.54102,0.02221,3.99332,13.35051,0.0,33.1665,32.50818,0.06866,0.26202,33.1665,-0.00461,2.48358,1056.85059,-3.41797,0.97656,-1.5481,0.46083,0.67884,4.39453,0.10769,4.4092,2.85743
34.0,-1.01648,0.0,-1.01502,0.0,0.00074,1.01648,0.0,3.35723,1.03027,-0.00793,0.0,-0.00597,0.0,0.00065,0.00793,0.0,4.08016,4e-05,-0.12476,0.0,-0.10856,0.0,0.0008,0.12476,-0.0,2.83781,0.01179,0.0,1.34277,1.10779,0.01135,0.10655,1.34277,-0.00011,2.74796,1.23855,0.0,2.92969,2.63245,0.00802,0.08956,2.92969,0.00021,3.29589,6.93779,0.0,2.01416,1.77124,0.00752,0.08674,2.01416,-2e-05,2.67316,3.14481,-4.54102,0.0,-3.62732,0.14353,0.37885,4.54102,0.02145,3.83111,13.30098,0.0,33.1665,32.50659,0.06813,0.26102,33.1665,-0.00442,2.50814,1056.74683,-3.41797,0.97656,-1.53894,0.47155,0.68669,4.39453,0.10621,4.24667,2.83988
35.0,-1.01648,0.0,-1.01503,0.0,0.00072,1.01648,0.0,3.43063,1.03029,-0.00793,0.0,-0.00598,0.0,0.00066,0.00793,0.0,3.96181,4e-05,-0.12476,0.0,-0.10857,0.0,0.0008,0.12476,-0.0,2.84532,0.01179,0.0,1.34277,1.1084,0.01145,0.10702,1.34277,-0.00012,2.714,1.24,0.0,2.92969,2.63,0.00746,0.08636,2.92969,0.00013,3.27076,6.92438,0.0,2.01416,1.77063,0.00764,0.08739,2.01416,-3e-05,2.63042,3.14277,-4.54102,0.0,-3.6167,0.13529,0.36781,4.54102,0.02479,3.86901,13.2158,0.0,33.1665,32.49744,0.0686,0.26191,33.1665,-0.00448,2.48106,1056.15222,-3.41797,0.97656,-1.5459,0.47938,0.69238,4.39453,0.10867,4.15183,2.86919
36.0,-1.01648,0.0,-1.01505,0.0,0.00072,1.01648,0.0,3.4933,1.03033,-0.00793,0.0,-0.00599,0.0,0.00066,0.00793,0.0,3.96954,4e-05,-0.12476,0.0,-0.1086,0.0,0.00081,0.12476,-0.0,2.82891,0.01179,0.0,1.34277,1.10779,0.01143,0.1069,1.34277,-0.0001,2.72358,1.23862,0.0,2.92969,2.63123,0.00729,0.0854,2.92969,0.00012,3.3571,6.93064,0.0,2.01416,1.77002,0.0076,0.08718,2.01416,-1e-05,2.65283,3.14057,-4.54102,0.0,-3.61475,0.13582,0.36854,4.54102,0.02413,3.82992,13.20221,0.0,33.1665,32.48938,0.07053,0.26558,33.1665,-0.00446,2.45532,1055.63062,-3.41797,0.97656,-1.54639,0.47986,0.69272,4.39453,0.10902,4.14546,2.87118
37.0,-1.01648,0.0,-1.01505,0.0,0.00072,1.01648,0.0,3.48807,1.03033,-0.00793,0.0,-0.006,0.0,0.00065,0.00793,0.0,4.14376,4e-05,-0.12476,0.0,-0.10861,0.0,0.00082,0.12476,-0.0,2.74631,0.0118,0.0,1.34277,1.10596,0.01112,0.10546,1.34277,-9e-05,2.79362,1.23426,0.0,2.92969,2.63062,0.00719,0.08479,2.92969,0.00012,3.42777,6.92732,0.0,2.01416,1.77002,0.0076,0.08718,2.01416,-1e-05,2.65283,3.14057,-4.54102,0.0,-3.61597,0.13662,0.36962,4.54102,0.02423,3.80105,13.21184,0.0,33.1665,32.48083,0.07141,0.26722,33.1665,-0.00426,2.42979,1055.07629,-3.41797,0.97656,-1.54736,0.47908,0.69216,4.39453,0.10995,4.15973,2.87342
38.0,-1.01648,0.0,-1.01505,0.0,0.00072,1.01648,0.0,3.50419,1.03033,-0.00793,0.0,-0.00601,0.0,0.00066,0.00793,0.0,4.0136,4e-05,-0.12476,0.0,-0.10862,0.0,0.00082,0.12476,-0.0,2.79604,0.0118,0.0,1.34277,1.10474,0.01099,0.10483,1.34277,-7e-05,2.84347,1.23143,0.0,2.92969,2.63306,0.00686,0.0828,2.92969,0.00014,3.46423,6.93984,0.0,2.01416,1.76941,0.00764,0.08739,2.01416,-0.0,2.62928,3.13844,-4.54102,0.0,-3.61682,0.13686,0.36994,4.54102,0.02453,3.793,13.21825,0.0,33.1665,32.46997,0.0727,0.26963,33.1665,-0.00524,2.45127,1054.37195,-3.41797,0.97656,-1.55298,0.47648,0.69028,4.39453,0.11665,4.21348,2.88822
39.0,-1.01648,0.0,-1.01505,0.0,0.00072,1.01648,0.0,3.50419,1.03033,-0.00793,0.0,-0.00601,0.0,0.00066,0.00793,0.0,3.99831,4e-05,-0.12476,0.0,-0.10862,0.0,0.00082,0.12476,-0.0,2.79362,0.0118,0.0,1.34277,1.10657,0.0113,0.1063,1.34277,-8e-05,2.76927,1.23579,0.0,2.92969,2.63306,0.00686,0.0828,2.92969,0.00014,3.46423,6.93984,0.0,2.01416,1.7688,0.00775,0.08802,2.01416,-0.0,2.58832,3.1364,-4.54102,0.0,-3.61816,0.13614,0.36897,4.54102,0.02479,3.83431,13.22725,0.0,33.1665,32.47424,0.07149,0.26738,33.1665,-0.00571,2.5222,1054.64819,-3.41797,0.97656,-1.55176,0.47571,0.68972,4.39453,0.11528,4.22392,2.88366
40.0,-1.01648,0.0,-1.01504,0.0,0.00072,1.01648,0.0,3.44867,1.03031,-0.00793,0.0,-0.00601,0.0,0.00066,0.00793,0.0,3.92881,4e-05,-0.12476,0.0,-0.10862,0.0,0.00082,0.12476,-0.0,2.77852,0.0118,0.0,1.34277,1.10657,0.0113,0.1063,1.34277,-8e-05,2.76927,1.23579,0.0,2.92969,2.63367,0.00688,0.08296,2.92969,0.00013,3.4322,6.94308,0.0,2.01416,1.76758,0.00804,0.08967,2.01416,-3e-05,2.56654,3.13237,-4.54102,0.0,-3.61658,0.13637,0.36928,4.54102,0.02417,3.81352,13.216,0.0,33.1665,32.47522,0.07198,0.2683,33.1665,-0.00573,2.50465,1054.71216,-3.41797,0.97656,-1.55225,0.47542,0.68951,4.39453,0.11585,4.22981,2.88489
41.0,-1.01648,0.0,-1.01502,0.0,0.00071,1.01648,0.0,3.4907,1.03027,-0.00793,0.0,-0.00603,0.0,0.00066,0.00793,0.0,3.91509,4e-05,-0.12476,0.0,-0.10863,0.0,0.00081,0.12476,-0.0,2.84386,0.0118,0.0,1.34277,1.10962,0.01068,0.10336,1.34277,-1e-05,2.74113,1.24194,0.0,2.92969,2.63428,0.00676,0.08221,2.92969,0.00014,3.49128,6.94617,0.0,2.01416,1.77002,0.00834,0.09135,2.01416,-3e-05,2.55102,3.14131,-4.54102,0.0,-3.62085,0.13846,0.3721,4.54102,0.02497,3.7441,13.24901,0.0,33.1665,32.48193,0.07065,0.2658,33.1665,-0.00621,2.56679,1055.14685,-3.41797,0.97656,-1.55188,0.47588,0.68984,4.39453,0.11575,4.22255,2.88421
42.0,-1.01648,0.0,-1.01501,0.0,0.00072,1.01648,0.0,3.38508,1.03025,-0.00793,0.0,-0.00603,0.0,0.00067,0.00793,0.0,3.84033,4e-05,-0.12476,0.0,-0.10864,0.0,0.0008,0.12476,-0.0,2.88372,0.0118,0.0,1.34277,1.10962,0.01068,0.10336,1.34277,-1e-05,2.74113,1.24194,0.0,2.92969,2.63367,0.00673,0.08206,2.92969,0.00015,3.52414,6.94293,0.0,2.01416,1.77002,0.00834,0.09135,2.01416,-3e-05,2.55102,3.14131,-4.54102,0.0,-3.62622,0.14399,0.37946,4.54102,0.02259,3.66646,13.29346,0.0,33.1665,32.48621,0.07455,0.27304,33.1665,-0.00427,2.67804,1055.42834,-3.41797,0.97656,-1.54138,0.48016,0.69293,4.39453,0.10489,4.13928,2.85601
43.0,-1.01648,0.0,-1.01501,0.0,0.00072,1.01648,0.0,3.38967,1.03026,-0.00793,0.0,-0.00603,0.0,0.00067,0.00793,0.0,3.84683,4e-05,-0.12476,0.0,-0.10863,0.0,0.00082,0.12476,-0.0,2.932,0.0118,0.0,1.34277,1.11023,0.01063,0.10311,1.34277,-3e-05,2.76553,1.24324,0.0,2.92969,2.63428,0.00676,0.08221,2.92969,0.00014,3.49128,6.94617,0.0,2.01416,1.77002,0.00834,0.09135,2.01416,-3e-05,2.55102,3.14131,-4.54102,0.0,-3.62195,0.14246,0.37744,4.54102,0.02136,3.71521,13.26097,0.0,33.1665,32.49414,0.07705,0.27758,33.1665,-0.00424,2.68326,1055.94653,-3.41797,0.97656,-1.54175,0.47982,0.69269,4.39453,0.10519,4.14515,2.85681
44.0,-1.01648,0.0,-1.01502,0.0,0.00072,1.01648,0.0,3.38018,1.03026,-0.00793,0.0,-0.00604,0.0,0.00066,0.00793,0.0,3.96623,4e-05,-0.12476,0.0,-0.10863,0.0,0.00082,0.12476,-0.0,2.97553,0.0118,0.0,1.34277,1.11206,0.0107,0.10343,1.34277,-7e-05,2.74469,1.24738,0.0,2.92969,2.63855,0.00744,0.08625,2.92969,0.00032,4.08863,6.96938,0.0,2.01416,1.77185,0.00845,0.09194,2.01416,-5e-05,2.51823,3.14791,-4.54102,0.0,-3.62646,0.14176,0.37651,4.54102,0.02297,3.76819,13.293,0.0,33.19092,32.49939,0.08158,0.28563,33.19092,-0.00219,2.75114,1056.29224,-3.41797,0.97656,-1.51709,0.47157,0.68671,4.39453,0.10955,4.12902,2.77313
45.0,-1.01648,0.0,-1.01502,0.0,0.00072,1.01648,0.0,3.35954,1.03027,-0.00793,0.0,-0.00603,0.0,0.00067,0.00793,0.0,3.88578,4e-05,-0.12476,0.0,-0.10865,0.0,0.00082,0.12476,0.0,3.00752,0.0118,0.0,1.34277,1.11328,0.01066,0.10326,1.34277,-0.0001,2.76371,1.25006,0.0,2.92969,2.63855,0.00744,0.08625,2.92969,0.00032,4.08863,6.96938,0.0,2.01416,1.77185,0.00845,0.09194,2.01416,-5e-05,2.51823,3.14791,-4.54102,0.0,-3.62207,0.13928,0.3732,4.54102,0.02238,3.85029,13.25867,0.0,33.19092,32.49878,0.08173,0.28588,33.19092,-0.00207,2.74119,1056.25269,-3.41797,0.97656,-1.52246,0.47609,0.68999,4.39453,0.11394,4.07147,2.79398
46.0,-1.01648,0.0,-1.01503,0.0,0.00072,1.01648,0.0,3.36595,1.03028,-0.00793,0.0,-0.00603,0.0,0.00067,0.00793,0.0,3.88578,4e-05,-0.12476,0.0,-0.10866,0.0,0.0008,0.12476,-0.0,2.87639,0.01181,0.0,1.34277,1.11389,0.01076,0.10371,1.34277,-0.00011,2.72913,1.25151,0.0,2.92969,2.64038,0.00772,0.08787,2.92969,0.00033,3.89096,6.97933,0.0,2.01416,1.77429,0.00874,0.09347,2.01416,-6e-05,2.50006,3.15685,-4.54102,0.0,-3.6189,0.13956,0.37357,4.54102,0.02115,3.82153,13.23597,0.0,33.26416,32.51306,0.08299,0.28808,33.26416,0.00177,2.84712,1057.1825,-3.41797,0.97656,-1.51489,0.47025,0.68575,4.39453,0.10765,4.14259,2.76515
47.0,-1.01648,0.0,-1.01502,0.0,0.00071,1.01648,0.0,3.43313,1.03026,-0.00793,0.0,-0.00603,0.0,0.00067,0.00793,0.0,3.88578,4e-05,-0.12476,0.0,-0.10865,0.0,0.0008,0.12476,-0.0,2.8388,0.01181,0.0,1.34277,1.11267,0.01064,0.10317,1.34277,-8e-05,2.77153,1.24868,0.0,2.92969,2.64099,0.00781,0.08839,2.92969,0.00033,3.80671,6.98264,0.0,2.01416,1.77551,0.00902,0.09499,2.01416,-3e-05,2.46937,3.16147,-4.54102,0.0,-3.61609,0.13948,0.37347,4.54102,0.02003,3.81383,13.21558,0.0,33.26416,32.51208,0.08326,0.28855,33.26416,0.00195,2.83128,1057.11926,-3.41797,0.97656,-1.50146,0.45207,0.67236,4.39453,0.11359,4.29171,2.70647
48.0,-1.01648,0.0,-1.01502,0.0,0.00071,1.01648,0.0,3.45008,1.03026,-0.00793,0.0,-0.00603,0.0,0.00067,0.00793,0.0,3.89305,4e-05,-0.12476,0.0,-0.10864,0.0,0.00081,0.12476,-0.0,2.77462,0.0118,0.0,1.34277,1.10962,0.01091,0.10443,1.34277,-7e-05,2.74245,1.24216,0.0,2.92969,2.64099,0.00781,0.08839,2.92969,0.00033,3.80671,6.98264,0.0,2.01416,1.77551,0.00902,0.09499,2.01416,-3e-05,2.46937,3.16147,-4.54102,0.0,-3.61157,0.13623,0.36909,4.54102,0.02015,3.9152,13.17968,0.0,33.26416,32.51489,0.08497,0.2915,33.26416,0.00208,2.76866,1057.30347,-3.41797,0.97656,-1.47852,0.45771,0.67654,4.39453,0.11352,4.20854,2.64372
49.0,-1.01648,0.0,-1.01502,0.0,0.00071,1.01648,0.0,3.52447,1.03027,-0.00793,0.0,-0.00601,0.0,0.00067,0.00793,0.0,3.86718,4e-05,-0.12476,0.0,-0.10862,0.0,0.00082,0.12476,-0.0,2.76404,0.0118,0.0,1.34277,1.11084,0.01088,0.1043,1.34277,-0.00011,2.75868,1.24484,0.0,2.92969,2.64343,0.00743,0.08618,2.92969,0.00035,3.85705,6.99516,0.0,2.01416,1.77734,0.00866,0.09308,2.01416,-1e-05,2.50853,3.16761,-4.54102,0.0,-3.61682,0.13833,0.37193,4.54102,0.02131,3.8437,13.21973,0.0,33.26416,32.51392,0.08482,0.29124,33.26416,0.00231,2.77949,1057.23987,-3.41797,0.97656,-1.47852,0.45771,0.67654,4.39453,0.11352,4.20854,2.64372
50.0,-1.01648,0.0,-1.01502,0.0,0.0007,1.01648,0.0,3.55734,1.03026,-0.00793,0.0,-0.00601,0.0,0.00067,0.00793,0.0,3.84659,4e-05,-0.12476,0.0,-0.1086,0.0,0.00083,0.12476,-0.0,2.70178,0.01179,0.0,1.34277,1.10779,0.01076,0.10371,1.34277,-8e-05,2.76137,1.23795,0.0,2.92969,2.64343,0.00743,0.08618,2.92969,0.00035,3.85705,6.99516,0.0,2.01416,1.77673,0.00863,0.09292,2.01416,0.0,2.52388,3.16542,-4.54102,0.0,-3.61292,0.1373,0.37054,4.54102,0.02005,3.87868,13.19045,0.0,33.26416,32.51416,0.08485,0.2913,33.26416,0.00225,2.77709,1057.25586,-3.41797,0.97656,-1.47131,0.45337,0.67333,4.39453,0.10657,4.26474,2.61814
51.0,-1.01648,0.0,-1.01503,0.0,0.00071,1.01648,0.0,3.49709,1.03028,-0.00793,0.0,-0.00601,0.0,0.00067,0.00793,0.0,3.85623,4e-05,-0.12476,0.0,-0.10857,0.0,0.00085,0.12476,-0.0,2.85134,0.01179,0.0,1.34277,1.10901,0.01058,0.10288,1.34277,-0.0001,2.82939,1.24048,0.0,2.92969,2.64465,0.00723,0.08504,2.92969,0.00035,3.95999,7.00142,0.0,2.01416,1.77734,0.00859,0.09268,2.01416,-1e-05,2.54815,3.16754,-4.54102,0.0,-3.60791,0.13489,0.36727,4.54102,0.0192,3.96504,13.1519,0.0,33.26416,32.52051,0.08535,0.29214,33.26416,0.0013,2.75275,1057.66919,-3.41797,0.97656,-1.48303,0.46968,0.68533,4.39453,0.10176,4.1182,2.66906
52.0,-1.01648,0.0,-1.01503,0.0,0.00071,1.01648,0.0,3.52688,1.03029,-0.00793,0.0,-0.00601,0.0,0.00067,0.00793,0.0,3.81075,4e-05,-0.12476,0.0,-0.10857,0.0,0.00085,0.12476,-0.0,2.8531,0.01179,0.0,1.34277,1.10962,0.01061,0.103,1.34277,-0.00012,2.81944,1.24186,0.0,2.92969,2.64648,0.00727,0.08524,2.92969,0.00033,3.88612,7.01114,0.0,2.01416,1.77612,0.00861,0.09277,2.01416,2e-05,2.54023,3.16322,-4.54102,0.0,-3.60913,0.1343,0.36647,4.54102,0.01947,4.00089,13.16013,0.0,33.26416,32.52148,0.0853,0.29206,33.26416,0.00105,2.75534,1057.73254,-3.41797,0.97656,-1.49524,0.46134,0.67922,4.39453,0.10998,4.25442,2.69708
53.0,-1.01648,0.0,-1.01504,0.0,0.00071,1.01648,0.0,3.4711,1.0303,-0.00793,0.0,-0.006,0.0,0.00067,0.00793,0.0,3.75285,4e-05,-0.12476,0.0,-0.10854,0.0,0.00085,0.12476,-0.0,2.85873,0.01178,0.0,1.34277,1.10779,0.01076,0.10371,1.34277,-8e-05,2.76137,1.23795,0.0,2.92969,2.64709,0.00728,0.0853,2.92969,0.00032,3.86089,7.01438,0.0,2.01416,1.77185,0.00994,0.09972,2.01416,-0.00038,3.76942,3.1494,-4.54102,0.0,-3.61169,0.13328,0.36508,4.54102,0.02016,4.06728,13.17762,0.0,33.26416,32.52332,0.08459,0.29085,33.26416,0.00081,2.7915,1057.85107,-3.41797,0.97656,-1.49219,0.45902,0.67751,4.39453,0.10716,4.28754,2.68564
54.0,-1.01648,0.0,-1.01504,0.0,0.00071,1.01648,0.0,3.472,1.03031,-0.00793,0.0,-0.00599,0.0,0.00067,0.00793,0.0,3.78036,4e-05,-0.12476,0.0,-0.10851,0.0,0.00088,0.12476,0.0,2.9913,0.01178,0.0,1.34277,1.1084,0.01086,0.1042,1.34277,-9e-05,2.7255,1.2394,0.0,2.92969,2.64526,0.00724,0.08511,2.92969,0.00034,3.9309,7.00466,0.0,2.01416,1.77185,0.00994,0.09972,2.01416,-0.00038,3.76942,3.1494,-4.54102,0.0,-3.61121,0.13335,0.36518,4.54102,0.01997,4.06087,13.17416,0.0,33.26416,32.53149,0.08117,0.2849,33.26416,0.00121,2.80767,1058.37964,-3.41797,0.97656,-1.48401,0.45331,0.67328,4.39453,0.10033,4.36365,2.65559
55.0,-1.01648,0.0,-1.01505,0.0,0.00071,1.01648,0.0,3.53402,1.03033,-0.00793,0.0,-0.00601,0.0,0.00063,0.00793,-0.0,2.95943,4e-05,-0.12476,0.0,-0.10848,0.0,0.00086,0.12476,0.0,2.89409,0.01177,0.0,1.34277,1.10535,0.01035,0.10173,1.34277,-0.00013,2.70039,1.23214,0.0,2.92969,2.64404,0.00714,0.08452,2.92969,0.00036,4.05375,6.9981,0.0,2.01416,1.76941,0.00965,0.09822,2.01416,-0.00037,3.84699,3.14046,-4.54102,0.0,-3.61719,0.13269,0.36426,4.54102,0.02177,4.12321,13.21673,0.0,33.26416,32.53125,0.08118,0.28491,33.26416,0.00127,2.80745,1058.36377,-3.41797,0.97656,-1.49133,0.45172,0.6721,4.39453,0.10903,4.40711,2.67579
56.0,-1.01648,0.0,-1.01505,0.0,0.00071,1.01648,0.0,3.57338,1.03032,-0.00793,0.0,-0.00601,0.0,0.00063,0.00793,-0.0,2.95943,4e-05,-0.12476,0.0,-0.10849,0.0,0.00085,0.12476,0.0,2.94262,0.01177,0.0,1.34277,1.10474,0.01032,0.10158,1.34277,-0.00011,2.71221,1.23076,0.0,2.92969,2.64343,0.0072,0.08488,2.92969,0.00036,4.01063,6.99494,0.0,2.01416,1.76941,0.00965,0.09822,2.01416,-0.00037,3.84699,3.14046,-4.54102,0.0,-3.61377,0.13337,0.3652,4.54102,0.0206,4.06783,13.1927,0.0,33.26416,32.526,0.07852,0.28021,33.26416,0.00116,2.89021,1058.01965,-3.41797,0.97656,-1.5011,0.46088,0.67888,4.39453,0.11362,4.29365,2.71418
57.0,-1.01648,0.0,-1.01505,0.0,0.00071,1.01648,0.0,3.56003,1.03032,-0.00793,0.0,-0.006,0.0,0.00063,0.00793,-0.0,2.95897,4e-05,-0.12476,0.0,-0.10848,0.0,0.00085,0.12476,0.0,2.95193,0.01177,0.0,1.34277,1.10474,0.01032,0.10158,1.34277,-0.00011,2.71221,1.23076,0.0,2.92969,2.64221,0.0071,0.08426,2.92969,0.00038,4.14237,6.98838,0.0,2.01416,1.7688,0.00976,0.09879,2.01416,-0.00036,3.77213,3.13841,-4.54102,0.0,-3.61963,0.13462,0.3669,4.54102,0.02226,4.03388,13.23633,0.0,33.26416,32.53345,0.07664,0.27683,33.26416,0.00081,2.92982,1058.5022,-3.41797,0.97656,-1.51892,0.44013,0.66342,4.39453,0.10543,4.50569,2.74725
58.0,-1.01648,0.0,-1.01504,0.0,0.00071,1.01648,0.0,3.52842,1.03031,-0.00793,0.0,-0.00602,0.0,0.00062,0.00793,-0.0,3.00802,4e-05,-0.12476,0.0,-0.10846,0.0,0.00085,0.12476,0.0,2.93313,0.01176,0.0,1.34277,1.10291,0.01,0.10001,1.34277,-0.00011,2.7781,1.2264,0.0,2.92969,2.63916,0.00627,0.07917,2.92969,0.0002,3.63028,6.97143,0.0,2.01416,1.76941,0.00987,0.09936,2.01416,-0.00037,3.71748,3.14068,-4.54102,0.0,-3.62341,0.13488,0.36726,4.54102,0.02364,4.03844,13.264,0.0,33.26416,32.53308,0.07688,0.27728,33.26416,0.00077,2.92075,1058.47864,-3.41797,0.97656,-1.51147,0.42842,0.65454,4.39453,0.11056,4.64126,2.71298
59.0,-1.01648,0.0,-1.01504,0.0,0.00071,1.01648,0.0,3.52823,1.03031,-0.00793,0.0,-0.00602,0.0,0.00062,0.00793,-0.0,2.95402,4e-05,-0.12476,0.0,-0.10843,0.0,0.00084,0.12476,0.0,2.9465,0.01176,0.0,1.34277,1.10229,0.0099,0.09948,1.34277,-0.00011,2.81691,1.22495,0.0,2.92969,2.63794,0.00615,0.07844,2.92969,0.00021,3.75728,6.96487,0.0,2.01416,1.77124,0.00976,0.09879,2.01416,-0.0004,3.8113,3.14705,-4.54102,0.0,-3.63538,0.12076,0.34751,4.54102,0.01146,3.72948,13.33673,0.0,33.26416,32.52759,0.07948,0.28193,33.26416,0.00072,2.84357,1058.12378,-3.41797,0.97656,-1.51233,0.42833,0.65447,4.39453,0.11165,4.6453,2.71547
60.0,-1.01648,0.0,-1.01505,0.0,0.00071,1.01648,0.0,3.58185,1.03033,-0.00793,0.0,-0.00603,0.0,0.00062,0.00793,-0.0,2.96791,4e-05,-0.12476,0.0,-0.10843,0.0,0.00084,0.12476,0.0,2.93223,0.01176,0.0,1.34277,1.10168,0.00979,0.09894,1.34277,-0.00011,2.85692,1.2235,0.0,2.92969,2.63794,0.00615,0.07844,2.92969,0.00021,3.75728,6.96487,0.0,2.01416,1.77307,0.01009,0.10043,2.01416,-0.00039,3.70186,3.15387,-4.54102,0.0,-3.64221,0.11207,0.33477,4.54102,0.00476,3.62679,13.37778,0.0,33.26416,32.52832,0.07983,0.28254,33.26416,0.00067,2.82487,1058.17175,-3.41797,0.97656,-1.51257,0.42863,0.6547,4.39453,0.11169,4.64064,2.71651
61.0,-1.01648,0.0,-1.01504,0.0,0.00072,1.01648,0.0,3.45487,1.03031,-0.00793,0.0,-0.00604,0.0,0.00064,0.00793,-0.0,2.94376,4e-05,-0.12476,0.0,-0.10842,0.0,0.00084,0.12476,0.0,2.93602,0.01175,0.0,1.34277,1.09924,0.0092,0.09592,1.34277,-0.00018,2.80964,1.21754,0.0,2.92969,2.63794,0.00615,0.07844,2.92969,0.00021,3.75728,6.96487,0.0,2.01416,1.77368,0.01012,0.1006,2.01416,-0.00041,3.68832,3.15607,-4.54102,0.0,-3.64893,0.11401,0.33766,4.54102,0.00586,3.55512,13.42868,0.0,33.26416,32.52991,0.07935,0.2817,33.26416,0.00041,2.85396,1058.27454,-3.41797,0.97656,-1.49329,0.43575,0.66012,4.39453,0.10659,4.51816,2.66566
62.0,-1.01648,0.0,-1.01503,0.0,0.00073,1.01648,0.0,3.37791,1.03028,-0.00793,0.0,-0.00604,0.0,0.00064,0.00793,-0.0,2.89428,4e-05,-0.12476,0.0,-0.1084,0.0,0.00083,0.12476,0.0,3.01186,0.01175,0.0,1.34277,1.09924,0.0092,0.09592,1.34277,-0.00018,2.80964,1.21754,0.0,2.92969,2.63855,0.00625,0.07904,2.92969,0.00021,3.66483,6.96819,0.0,2.01416,1.77307,0.01009,0.10043,2.01416,-0.00039,3.70186,3.15387,-4.54102,0.0,-3.65552,0.11962,0.34586,4.54102,0.00388,3.46532,13.48243,0.0,33.26416,32.53015,0.07941,0.28179,33.26416,0.00036,2.8502,1058.29053,-3.41797,0.97656,-1.47595,0.43982,0.66319,4.39453,0.09756,4.43051,2.61826
63.0,-1.01648,0.0,-1.01502,0.0,0.00073,1.01648,0.0,3.3726,1.03028,-0.00793,0.0,-0.00605,0.0,0.00064,0.00793,-0.0,2.91743,4e-05,-0.12476,0.0,-0.10839,0.0,0.00083,0.12476,-0.0,3.00206,0.01175,0.0,1.34277,1.10107,0.00931,0.09647,1.34277,-0.00021,2.78487,1.22167,0.0,2.92969,2.63855,0.00625,0.07904,2.92969,0.00021,3.66483,6.96819,0.0,2.01416,1.77124,0.01021,0.10102,2.01416,-0.00036,3.61075,3.1475,-4.54102,0.0,-3.66028,0.11716,0.34228,4.54102,0.00435,3.57382,13.5148,0.0,33.26416,32.52698,0.08078,0.28422,33.26416,0.0006,2.78532,1058.08545,-3.41797,0.97656,-1.46606,0.449,0.67007,4.39453,0.09318,4.27442,2.59834
64.0,-1.01648,0.0,-1.01503,0.0,0.00073,1.01648,0.0,3.37311,1.03029,-0.00793,0.0,-0.00605,0.0,0.00064,0.00793,-0.0,2.94242,4e-05,-0.12476,0.0,-0.1084,0.0,0.00082,0.12476,-0.0,3.03508,0.01175,0.0,1.34277,1.09985,0.00916,0.09572,1.34277,-0.00019,2.83685,1.21884,0.0,2.92969,2.63977,0.00636,0.07976,2.92969,0.0002,3.54377,6.97475,0.0,2.01416,1.77124,0.01021,0.10102,2.01416,-0.00036,3.61075,3.1475,-4.54102,0.0,-3.65967,0.1174,0.34264,4.54102,0.00421,3.55971,13.51057,0.0,33.26416,32.52515,0.08154,0.28556,33.26416,0.00079,2.74613,1057.96716,-3.41797,0.97656,-1.47339,0.43927,0.66277,4.39453,0.09226,4.42193,2.61014
65.0,-1.01648,0.0,-1.01504,0.0,0.00073,1.01648,0.0,3.37621,1.03031,-0.00793,0.0,-0.00605,0.0,0.00064,0.00793,-0.0,2.88397,4e-05,-0.12476,0.0,-0.1084,0.0,0.00082,0.12476,0.0,3.08834,0.01175,0.0,1.34277,1.10107,0.00931,0.09647,1.34277,-0.00021,2.78487,1.22167,0.0,2.92969,2.63855,0.0064,0.07998,2.92969,0.00022,3.53592,6.96834,0.0,2.01416,1.77002,0.01021,0.10103,2.01416,-0.00033,3.59369,3.14318,-4.54102,0.0,-3.66174,0.11784,0.34327,4.54102,0.00485,3.53746,13.5262,0.0,33.26416,32.51697,0.08606,0.29336,33.26416,-0.00039,2.76326,1057.4397,-3.41797,0.97656,-1.46741,0.427,0.65345,4.39453,0.10391,4.51317,2.58028
66.0,-1.01648,0.0,-1.01503,0.0,0.00073,1.01648,0.0,3.29268,1.03029,-0.00793,0.0,-0.00605,0.0,0.00064,0.00793,-0.0,2.88397,4e-05,-0.12476,0.0,-0.10839,0.0,0.0008,0.12476,0.0,3.16678,0.01175,0.0,1.34277,1.09985,0.00931,0.0965,1.34277,-0.00018,2.77164,1.21899,0.0,2.92969,2.63977,0.00651,0.08068,2.92969,0.00021,3.42105,6.9749,0.0,2.01416,1.77185,0.01009,0.10046,2.01416,-0.00036,3.67977,3.14955,-4.54102,0.0,-3.66479,0.11846,0.34418,4.54102,0.00576,3.50779,13.54919,0.0,33.26416,32.51929,0.08632,0.29381,33.26416,-0.00094,2.74856,1057.59082,-3.41797,0.97656,-1.46094,0.4288,0.65483,4.39453,0.09666,4.46352,2.56314
67.0,-1.01648,0.0,-1.01504,0.0,0.00073,1.01648,0.0,3.39208,1.03031,-0.00793,0.0,-0.00606,0.0,0.00064,0.00793,-0.0,2.87705,4e-05,-0.12476,0.0,-0.10838,0.0,0.00081,0.12476,0.0,3.09639,0.01175,0.0,1.34277,1.09924,0.0092,0.09592,1.34277,-0.00018,2.80964,1.21754,0.0,2.92969,2.63794,0.00667,0.0817,2.92969,0.00022,3.36594,6.9654,0.0,2.01416,1.77246,0.01005,0.10026,2.01416,-0.00038,3.71638,3.15167,-4.54102,0.0,-3.67053,0.11889,0.3448,4.54102,0.00731,3.49832,13.5917,0.0,33.26416,32.51904,0.08621,0.29361,33.26416,-0.00092,2.75402,1057.57471,-3.41797,0.97656,-1.45007,0.45658,0.67571,4.39453,0.13872,4.42662,2.5593
68.0,-1.01648,0.0,-1.01504,0.0,0.00073,1.01648,0.0,3.37025,1.03031,-0.00793,0.0,-0.00606,0.0,0.00064,0.00793,-0.0,2.87705,4e-05,-0.12476,0.0,-0.10837,0.0,0.00081,0.12476,0.0,3.12529,0.01175,0.0,1.34277,1.09924,0.0092,0.09592,1.34277,-0.00018,2.80964,1.21754,0.0,2.92969,2.63977,0.00651,0.08068,2.92969,0.00021,3.42105,6.9749,0.0,2.01416,1.77307,0.01001,0.10006,2.01416,-0.00039,3.75435,3.15379,-4.54102,0.0,-3.67468,0.11698,0.34202,4.54102,0.00794,3.59598,13.62027,0.0,33.26416,32.52271,0.08602,0.29329,33.26416,-0.00173,2.76699,1057.81262,-3.41797,0.97656,-1.44763,0.45645,0.67561,4.39453,0.13541,4.42284,2.55208
69.0,-1.01648,0.0,-1.01504,0.0,0.00073,1.01648,0.0,3.30583,1.0303,-0.00793,0.0,-0.00606,0.0,0.00064,0.00793,-0.0,2.83048,4e-05,-0.12476,0.0,-0.10837,0.0,0.00081,0.12476,0.0,3.12529,0.01175,0.0,1.34277,1.09741,0.00931,0.0965,1.34277,-0.00015,2.7532,1.21363,0.0,2.92969,2.63916,0.00649,0.08057,2.92969,0.00022,3.45226,6.97165,0.0,2.01416,1.77429,0.01,0.10001,2.01416,-0.00043,3.78041,3.15811,-4.54102,0.0,-3.6759,0.11665,0.34154,4.54102,0.00829,3.61821,13.62891,0.0,33.26416,32.52271,0.08602,0.29329,33.26416,-0.00173,2.76699,1057.81274,-3.41797,0.97656,-1.44653,0.45602,0.67529,4.39453,0.13404,4.42813,2.54848
70.0,-1.01648,0.0,-1.01503,0.0,0.00073,1.01648,0.0,3.31422,1.03028,-0.00793,0.0,-0.00607,0.0,0.00064,0.00793,-0.0,2.84631,4e-05,-0.12476,0.0,-0.10836,0.0,0.00081,0.12476,-0.0,3.05978,0.01174,0.0,1.34277,1.09436,0.00948,0.09737,1.34277,-0.00014,2.7268,1.20711,0.0,2.92969,2.63855,0.00655,0.08091,2.92969,0.00022,3.41482,6.96849,0.0,2.01416,1.77307,0.01001,0.10006,2.01416,-0.00039,3.75435,3.15379,-4.54102,0.0,-3.677,0.11628,0.341,4.54102,0.00858,3.64214,13.63663,0.0,33.26416,32.5249,0.08659,0.29426,33.26416,-0.00216,2.7373,1057.9563,-3.41797,0.97656,-1.43701,0.45349,0.67341,4.39453,0.12371,4.44783,2.51849
71.0,-1.01648,0.0,-1.01504,0.0,0.00074,1.01648,0.0,3.24727,1.0303,-0.00793,0.0,-0.00606,0.0,0.00063,0.00793,-0.0,2.9118,4e-05,-0.12476,0.0,-0.10835,0.0,0.00081,0.12476,-0.0,3.02969,0.01174,0.0,1.34277,1.09497,0.00937,0.09682,1.34277,-0.00014,2.77234,1.20834,0.0,2.92969,2.63672,0.00693,0.08324,2.92969,0.00019,3.38744,6.95921,0.0,2.01416,1.77124,0.00968,0.09841,2.01416,-0.0004,3.8672,3.14698,-4.54102,0.0,-3.67786,0.11658,0.34144,4.54102,0.0088,3.62718,13.64321,0.0,33.26416,32.5282,0.08618,0.29357,33.26416,-0.00289,2.76437,1058.17029,-3.41797,0.97656,-1.4209,0.4543,0.67402,4.39453,0.11226,4.40023,2.47325
72.0,-1.01648,0.0,-1.01504,0.0,0.00074,1.01648,0.0,3.22431,1.03031,-0.00793,0.0,-0.00606,0.0,0.00063,0.00793,-0.0,2.90272,4e-05,-0.12476,0.0,-0.10836,0.0,0.00082,0.12476,-0.0,2.98265,0.01174,0.0,1.34277,1.09802,0.00957,0.09784,1.34277,-0.00015,2.78336,1.21523,0.0,2.92969,2.63672,0.00693,0.08324,2.92969,0.00019,3.38744,6.95921,0.0,2.01416,1.77185,0.00965,0.09821,2.01416,-0.00041,3.90767,3.1491,-4.54102,0.0,-3.68506,0.12061,0.34729,4.54102,0.00874,3.52142,13.70027,0.0,33.26416,32.52698,0.08668,0.29441,33.26416,-0.00273,2.73692,1058.09131,-3.41797,0.97656,-1.42639,0.45361,0.67351,4.39453,0.11926,4.42541,2.4882
73.0,-1.01648,0.0,-1.01502,0.0,0.00074,1.01648,0.0,3.15797,1.03026,-0.00793,0.0,-0.00607,0.0,0.00062,0.00793,-0.0,2.9412,4e-05,-0.12476,0.0,-0.10837,0.0,0.00082,0.12476,0.0,2.98773,0.01175,0.0,1.34277,1.10046,0.00987,0.09934,1.34277,-0.00016,2.74709,1.22089,0.0,2.92969,2.63794,0.0069,0.08305,2.92969,0.00017,3.39513,6.96562,0.0,2.01416,1.77002,0.00909,0.09534,2.01416,-0.0005,3.93711,3.14206,-4.54102,0.0,-3.68335,0.1196,0.34583,4.54102,0.00858,3.56362,13.68666,0.0,33.26416,32.52478,0.08762,0.29601,33.26416,-0.00248,2.68969,1057.94934,-3.41797,0.97656,-1.41626,0.45533,0.67478,4.39453,0.10826,4.37425,2.46112
74.0,-1.01648,0.0,-1.01502,0.0,0.00074,1.01648,0.0,3.16212,1.03027,-0.00793,0.0,-0.00606,0.0,0.00063,0.00793,-0.0,2.90838,4e-05,-0.12476,0.0,-0.10837,0.0,0.00082,0.12476,0.0,2.9869,0.01175,0.0,1.34277,1.09985,0.00991,0.09954,1.34277,-0.00014,2.7233,1.21959,0.0,2.92969,2.63916,0.00671,0.08194,2.92969,0.00017,3.48898,6.97188,0.0,2.01416,1.77002,0.00909,0.09534,2.01416,-0.0005,3.93711,3.14206,-4.54102,0.0,-3.68237,0.11957,0.34579,4.54102,0.00824,3.56316,13.67944,0.0,33.26416,32.521,0.08778,0.29628,33.26416,-0.00163,2.67717,1057.70325,-3.41797,0.97656,-1.40442,0.45591,0.67521,4.39453,0.09625,4.34165,2.42831
75.0,-1.01648,0.0,-1.01504,0.0,0.00074,1.01648,0.0,3.28075,1.0303,-0.00793,0.0,-0.00605,0.0,0.00062,0.00793,-0.0,2.98106,4e-05,-0.12476,0.0,-0.10835,0.0,0.00081,0.12476,-0.0,3.01475,0.01174,0.0,1.34277,1.09741,0.01021,0.10102,1.34277,-0.00013,2.6604,1.21452,0.0,2.92969,2.63977,0.00681,0.08251,2.92969,0.00016,3.41254,6.97519,0.0,2.01416,1.76941,0.00898,0.09475,2.01416,-0.0005,3.99474,3.13979,-4.54102,0.0,-3.6842,0.11902,0.34499,4.54102,0.00875,3.59801,13.69238,0.0,33.26416,32.51965,0.08865,0.29775,33.26416,-0.0017,2.64799,1057.61682,-3.41797,0.97656,-1.40479,0.45576,0.6751,4.39453,0.0967,4.34526,2.42918
76.0,-1.01648,0.0,-1.01504,0.0,0.00074,1.01648,0.0,3.27962,1.0303,-0.00793,0.0,-0.00606,0.0,0.00062,0.00793,-0.0,2.98098,4e-05,-0.12476,0.0,-0.10834,0.0,0.00081,0.12476,-0.0,3.08837,0.01174,0.0,1.34277,1.0968,0.01024,0.1012,1.34277,-0.00011,2.64039,1.21322,0.0,2.92969,2.63977,0.00681,0.08251,2.92969,0.00016,3.41254,6.97519,0.0,2.01416,1.7688,0.00909,0.09533,2.01416,-0.0005,3.90767,3.13774,-4.54102,0.0,-3.68726,0.11981,0.34613,4.54102,0.00962,3.56308,13.71566,0.0,33.26416,32.52002,0.08882,0.29803,33.26416,-0.00174,2.64062,1057.64075,-3.41797,0.97656,-1.41406,0.46471,0.6817,4.39453,0.10103,4.23355,2.46429
77.0,-1.01648,0.0,-1.01504,0.0,0.00074,1.01648,0.0,3.29206,1.03031,-0.00793,0.0,-0.00605,0.0,0.00062,0.00793,-0.0,3.06402,4e-05,-0.12476,0.0,-0.10833,0.0,0.00081,0.12476,-0.0,3.07098,0.01174,0.0,1.34277,1.09619,0.01035,0.10174,1.34277,-0.00011,2.60062,1.21199,0.0,2.92969,2.63855,0.00684,0.08273,2.92969,0.00018,3.40117,6.96879,0.0,2.01416,1.76941,0.0092,0.09592,2.01416,-0.0005,3.85219,3.14001,-4.54102,0.0,-3.6864,0.11951,0.3457,4.54102,0.0094,3.57743,13.70906,0.0,33.26416,32.5199,0.08881,0.29801,33.26416,-0.00171,2.64094,1057.63293,-3.41797,0.97656,-1.41382,0.46485,0.6818,4.39453,0.10075,4.23071,2.46373
78.0,-1.01648,0.0,-1.01505,0.0,0.00073,1.01648,0.0,3.39132,1.03032,-0.00793,0.0,-0.00604,0.0,0.00061,0.00793,-0.0,3.17144,4e-05,-0.12476,0.0,-0.10832,0.0,0.00079,0.12476,-0.0,3.16664,0.01173,0.0,1.34277,1.09497,0.01049,0.10243,1.34277,-9e-05,2.5447,1.20945,0.0,2.92969,2.63916,0.00671,0.08194,2.92969,0.00019,3.45352,6.97188,0.0,2.01416,1.77002,0.00939,0.09689,2.01416,-0.00048,3.81708,3.14236,-4.54102,0.0,-3.6875,0.11944,0.3456,4.54102,0.00979,3.58443,13.7171,0.0,33.26416,32.51868,0.08994,0.29991,33.26416,-0.00218,2.63491,1057.55457,-3.41797,0.97656,-1.3999,0.44081,0.66394,4.39453,0.11972,4.36883,2.40054
79.0,-1.01648,0.0,-1.01502,0.0,0.00072,1.01648,0.0,3.30633,1.03026,-0.00793,0.0,-0.00605,0.0,0.00061,0.00793,-0.0,3.15339,4e-05,-0.12476,0.0,-0.10832,0.0,0.00079,0.12476,-0.0,3.16864,0.01173,0.0,1.34277,1.09497,0.01049,0.10243,1.34277,-9e-05,2.5447,1.20945,0.0,2.92969,2.63855,0.00662,0.08136,2.92969,0.00019,3.53369,6.96856,0.0,2.01416,1.76758,0.00938,0.09686,2.01416,-0.00045,3.76873,3.13371,-4.54102,0.0,-3.68762,0.11947,0.34565,4.54102,0.00982,3.58281,13.71803,0.0,33.26416,32.51538,0.09069,0.30115,33.26416,-0.0015,2.59596,1057.34106,-3.41797,0.97656,-1.401,0.43971,0.6631,4.39453,0.12033,4.39062,2.40251
80.0,-1.01648,0.0,-1.01502,0.0,0.00072,1.01648,0.0,3.38189,1.03028,-0.00793,0.0,-0.00605,0.0,0.00061,0.00793,-0.0,3.13528,4e-05,-0.12476,0.0,-0.1083,0.0,0.0008,0.12476,-0.0,3.10253,0.01173,0.0,1.34277,1.09741,0.0108,0.10393,1.34277,-0.0001,2.5093,1.21512,0.0,2.92969,2.63916,0.00657,0.08103,2.92969,0.00019,3.57465,6.97173,0.0,2.01416,1.7688,0.00939,0.09688,2.01416,-0.00047,3.79102,3.13804,-4.54102,0.0,-3.68945,0.11917,0.34522,4.54102,0.01043,3.60535,13.73124,0.0,33.26416,32.51257,0.09152,0.30252,33.26416,-0.00097,2.55582,1057.1593,-3.41797,0.97656,-1.39221,0.4473,0.66881,4.39453,0.11526,4.25088,2.38556
81.0,-1.01648,0.0,-1.01503,0.0,0.00072,1.01648,0.0,3.41158,1.03028,-0.00793,0.0,-0.00604,0.0,0.0006,0.00793,-0.0,3.22641,4e-05,-0.12476,0.0,-0.1083,0.0,0.0008,0.12476,-0.0,3.05734,0.01173,0.0,1.34277,1.09558,0.01091,0.10443,1.34277,-6e-05,2.47274,1.2112,0.0,2.92969,2.64038,0.00638,0.07987,2.92969,0.00019,3.67664,6.97799,0.0,2.01416,1.76941,0.00935,0.0967,2.01416,-0.00049,3.83236,3.14016,-4.54102,0.0,-3.69678,0.12033,0.34688,4.54102,0.01194,3.58147,13.78649,0.0,33.26416,32.51208,0.09169,0.3028,33.26416,-0.00088,2.54733,1057.12769,-3.41797,0.97656,-1.38635,0.45672,0.67581,4.39453,0.11916,4.13027,2.37869
82.0,-1.01648,0.0,-1.01503,0.0,0.00072,1.01648,0.0,3.36469,1.0303,-0.00793,0.0,-0.00606,0.0,0.0006,0.00793,-0.0,3.20413,4e-05,-0.12476,0.0,-0.10827,0.0,0.0008,0.12476,-0.0,3.1,0.01172,0.0,1.34277,1.0968,0.01106,0.10517,1.34277,-8e-05,2.42645,1.21403,0.0,2.92969,2.6416,0.00634,0.07962,2.92969,0.00017,3.69369,6.9844,0.0,2.01416,1.77002,0.00924,0.09612,2.01416,-0.00049,3.91519,3.14221,-4.54102,0.0,-3.70715,0.11684,0.34182,4.54102,0.01196,3.68287,13.85983,0.0,33.26416,32.51233,0.09168,0.30278,33.26416,-0.00095,2.54823,1057.14343,-3.41797,0.97656,-1.37524,0.47072,0.68609,4.39453,0.12037,3.95338,2.36201
83.0,-1.01648,0.0,-1.01504,0.0,0.00073,1.01648,0.0,3.34294,1.0303,-0.00793,0.0,-0.00605,0.0,0.0006,0.00793,-0.0,3.23693,4e-05,-0.12476,0.0,-0.10829,0.0,0.00081,0.12476,-0.0,3.01837,0.01173,0.0,1.34277,1.09619,0.01095,0.10463,1.34277,-8e-05,2.45723,1.21258,0.0,2.92969,2.64221,0.00643,0.08018,2.92969,0.00017,3.60856,6.98771,0.0,2.01416,1.77002,0.00924,0.09612,2.01416,-0.00049,3.91519,3.14221,-4.54102,0.0,-3.71021,0.11525,0.33949,4.54102,0.01233,3.77447,13.88088,0.0,33.26416,32.51135,0.09166,0.30275,33.26416,-0.00068,2.54868,1057.07996,-3.41797,0.97656,-1.37891,0.4744,0.68877,4.39453,0.12266,3.90952,2.37578
84.0,-1.01648,0.0,-1.01504,0.0,0.00073,1.01648,0.0,3.34294,1.0303,-0.00793,0.0,-0.00605,0.0,0.0006,0.00793,-0.0,3.23693,4e-05,-0.12476,0.0,-0.10829,0.0,0.00081,0.12476,-0.0,3.00769,0.01173,0.0,1.34277,1.09497,0.01109,0.1053,1.34277,-6e-05,2.40854,1.21005,0.0,2.92969,2.64038,0.00638,0.07987,2.92969,0.00019,3.67664,6.97799,0.0,2.01416,1.76819,0.00957,0.09783,2.01416,-0.0005,3.72899,3.13606,-4.54102,0.0,-3.71863,0.11633,0.34107,4.54102,0.01366,3.7663,13.94452,0.0,33.26416,32.50928,0.0922,0.30365,33.26416,-0.00024,2.52181,1056.94543,-3.41797,0.97656,-1.37732,0.47224,0.6872,4.39453,0.12261,3.93276,2.36925
85.0,-1.01648,0.0,-1.01503,0.0,0.00072,1.01648,0.0,3.35696,1.03029,-0.00793,0.0,-0.00607,0.0,0.00058,0.00793,-0.0,3.01646,4e-05,-0.12476,0.0,-0.10829,0.0,0.00081,0.12476,-0.0,3.0064,0.01173,0.0,1.34277,1.09497,0.01109,0.1053,1.34277,-6e-05,2.40854,1.21005,0.0,2.92969,2.64038,0.00638,0.07987,2.92969,0.00019,3.67664,6.97799,0.0,2.01416,1.76819,0.00957,0.09783,2.01416,-0.0005,3.72899,3.13606,-4.54102,0.0,-3.72473,0.11649,0.34131,4.54102,0.01522,3.78379,13.99012,0.0,33.26416,32.51416,0.0899,0.29983,33.26416,-0.00046,2.58787,1057.26074,-3.41797,0.97656,-1.37524,0.46922,0.68499,4.39453,0.12301,3.96411,2.36051
86.0,-1.01648,0.0,-1.01503,0.0,0.00072,1.01648,0.0,3.35931,1.03029,-0.00793,0.0,-0.00607,0.0,0.00058,0.00793,-0.0,3.01646,4e-05,-0.12476,0.0,-0.1083,0.0,0.00082,0.12476,-0.0,2.92222,0.01173,0.0,1.34277,1.09558,0.01091,0.10443,1.34277,-3e-05,2.41953,1.2112,0.0,2.92969,2.6416,0.00634,0.07962,2.92969,0.00017,3.69369,6.9844,0.0,2.01416,1.76758,0.00953,0.09763,2.01416,-0.00048,3.74525,3.13386,-4.54102,0.0,-3.72559,0.11715,0.34227,4.54102,0.01514,3.75958,13.99714,0.0,33.26416,32.51733,0.09194,0.30321,33.26416,-0.00027,2.53682,1057.46912,-3.41797,0.97656,-1.36902,0.46571,0.68243,4.39453,0.11637,4.00464,2.33992
87.0,-1.01648,0.0,-1.01501,0.0,0.00071,1.01648,0.0,3.33431,1.03025,-0.00793,0.0,-0.00607,0.0,0.00058,0.00793,-0.0,3.02463,4e-05,-0.12476,0.0,-0.10831,0.0,0.00082,0.12476,-0.0,2.98419,0.01173,0.0,1.34277,1.09741,0.0108,0.10393,1.34277,-7e-05,2.45335,1.21512,0.0,2.92969,2.64282,0.0063,0.07935,2.92969,0.00015,3.71587,6.9908,0.0,2.01416,1.76758,0.00953,0.09763,2.01416,-0.00048,3.74525,3.13386,-4.54102,0.0,-3.72791,0.11863,0.34443,4.54102,0.01522,3.70053,14.01591,0.0,33.26416,32.51599,0.0923,0.30382,33.26416,2e-05,2.51851,1057.38208,-3.41797,0.97656,-1.35889,0.46824,0.68428,4.39453,0.10525,3.94726,2.31481
88.0,-1.01648,0.0,-1.015,0.0,0.00071,1.01648,0.0,3.2959,1.03023,-0.00793,0.0,-0.00608,0.0,0.00057,0.00793,-0.0,3.01287,4e-05,-0.12476,0.0,-0.10831,0.0,0.00082,0.12476,-0.0,2.98775,0.01173,0.0,1.34277,1.0968,0.01076,0.10374,1.34277,-6e-05,2.46852,1.21374,0.0,2.92969,2.6416,0.00604,0.07772,2.92969,0.00013,3.85081,6.9841,0.0,2.01416,1.76636,0.00967,0.09835,2.01416,-0.00047,3.63303,3.12969,-4.54102,0.0,-3.72949,0.11778,0.34319,4.54102,0.01543,3.75162,14.02689,0.0,33.26416,32.51282,0.09103,0.30172,33.26416,0.00043,2.56968,1057.17444,-3.41797,0.97656,-1.34851,0.47543,0.68952,4.39453,0.09709,3.83492,2.29391
89.0,-1.01648,0.0,-1.015,0.0,0.00071,1.01648,0.0,3.2959,1.03023,-0.00793,0.0,-0.00609,0.0,0.00058,0.00793,-0.0,2.93861,4e-05,-0.12476,0.0,-0.10831,0.0,0.00081,0.12476,-0.0,2.99755,0.01173,0.0,1.34277,1.10107,0.01102,0.10498,1.34277,1e-05,2.55531,1.22339,0.0,2.92969,2.64221,0.00606,0.07783,2.92969,0.00012,3.82307,6.98734,0.0,2.01416,1.76453,0.00954,0.09769,2.01416,-0.00044,3.66813,3.1231,-4.54102,0.0,-3.73022,0.11861,0.3444,4.54102,0.01498,3.74054,14.03319,0.0,33.26416,32.51367,0.09103,0.30172,33.26416,0.0002,2.56954,1057.2301,-3.41797,0.97656,-1.34534,0.47616,0.69004,4.39453,0.09277,3.8182,2.28609
90.0,-1.01648,0.0,-1.01501,0.0,0.00071,1.01648,0.0,3.41313,1.03026,-0.00793,0.0,-0.0061,0.0,0.00057,0.00793,-0.0,2.96909,4e-05,-0.12476,0.0,-0.10831,0.0,0.00081,0.12476,-0.0,3.00582,0.01173,0.0,1.34277,1.10291,0.01067,0.10331,1.34277,2e-05,2.61753,1.22707,0.0,2.92969,2.6416,0.00604,0.07772,2.92969,0.00013,3.85081,6.9841,0.0,2.01416,1.76453,0.00954,0.09769,2.01416,-0.00044,3.66813,3.1231,-4.54102,0.0,-3.72852,0.11709,0.34218,4.54102,0.01541,3.78519,14.01892,0.0,33.26416,32.51648,0.08938,0.29896,33.26416,0.00023,2.62112,1057.41101,-3.41797,0.97656,-1.35986,0.49059,0.70042,4.39453,0.09542,3.71241,2.33982
91.0,-1.01648,0.0,-1.015,0.0,0.00071,1.01648,0.0,3.30698,1.03024,-0.00793,0.0,-0.0061,0.0,0.00057,0.00793,-0.0,2.96996,4e-05,-0.12476,0.0,-0.10831,0.0,0.00081,0.12476,-0.0,3.02433,0.01173,0.0,1.34277,1.10352,0.01063,0.1031,1.34277,-0.0,2.63687,1.22838,0.0,2.92969,2.64038,0.00608,0.07798,2.92969,0.00015,3.82711,6.97769,0.0,2.01416,1.76331,0.00953,0.09762,2.01416,-0.00041,3.65574,3.11878,-4.54102,0.0,-3.7345,0.11852,0.34427,4.54102,0.01673,3.74273,14.06499,0.0,33.26416,32.51892,0.08986,0.29977,33.26416,-0.00032,2.5959,1057.57019,-3.41797,0.97656,-1.38403,0.43548,0.65991,4.39453,-0.00054,3.13177,2.35103
92.0,-1.01648,0.0,-1.015,0.0,0.00071,1.01648,0.0,3.32109,1.03023,-0.00793,0.0,-0.0061,0.0,0.00057,0.00793,-0.0,2.96996,4e-05,-0.12476,0.0,-0.10833,0.0,0.00082,0.12476,-0.0,2.93433,0.01174,0.0,1.34277,1.10168,0.0112,0.10585,1.34277,-9e-05,2.67165,1.22491,0.0,2.92969,2.63794,0.00615,0.07844,2.92969,0.00015,3.83471,6.96487,0.0,2.01416,1.76331,0.00953,0.09762,2.01416,-0.00041,3.65574,3.11878,-4.54102,0.0,-3.73608,0.11688,0.34187,4.54102,0.016,3.79014,14.0752,0.0,33.26416,32.521,0.09115,0.30192,33.26416,-0.00026,2.55658,1057.70654,-3.41797,0.97656,-1.3844,0.43553,0.65994,4.39453,-7e-05,3.13112,2.35209
93.0,-1.01648,0.0,-1.01501,0.0,0.00072,1.01648,0.0,3.28326,1.03024,-0.00793,0.0,-0.0061,0.0,0.00057,0.00793,-0.0,2.98232,4e-05,-0.12476,0.0,-0.10834,0.0,0.00085,0.12476,-0.0,2.89608,0.01174,0.0,1.34277,1.10229,0.01116,0.10565,1.34277,-0.00011,2.69205,1.22622,0.0,2.92969,2.63977,0.00599,0.07738,2.92969,0.00015,3.92196,6.97437,0.0,2.01416,1.76453,0.00925,0.09616,2.01416,-0.00039,3.79193,3.1228,-4.54102,0.0,-3.73145,0.11414,0.33785,4.54102,0.01585,3.89217,14.03783,0.0,33.3374,32.52551,0.09647,0.31059,33.3374,0.00339,2.73315,1058.00562,-3.41797,0.97656,-1.39075,0.42953,0.65539,4.39453,0.00329,3.1983,2.36371
94.0,-1.01648,0.0,-1.015,0.0,0.00072,1.01648,0.0,3.211,1.03022,-0.00793,0.0,-0.00609,0.0,0.00058,0.00793,-0.0,2.92317,4e-05,-0.12476,0.0,-0.10836,0.0,0.00087,0.12476,-0.0,2.90403,0.01174,0.0,1.34277,1.10352,0.01115,0.1056,1.34277,-0.00015,2.70146,1.2289,0.0,2.92969,2.6416,0.00626,0.07915,2.92969,0.00016,3.75301,6.98432,0.0,2.01416,1.76331,0.00923,0.09608,2.01416,-0.00036,3.78157,3.11848,-4.54102,0.0,-3.73535,0.1113,0.33361,4.54102,0.01547,4.03502,14.06415,0.0,33.3374,32.52783,0.0951,0.30839,33.3374,0.00336,2.77853,1058.15515,-3.41797,0.97656,-1.39111,0.4296,0.65544,4.39453,0.00375,3.19733,2.3648
95.0,-1.01648,0.0,-1.015,0.0,0.00072,1.01648,0.0,3.16122,1.03023,-0.00793,0.0,-0.0061,0.0,0.00058,0.00793,-0.0,2.96972,4e-05,-0.12476,0.0,-0.10838,0.0,0.00086,0.12476,-0.0,2.97385,0.01175,0.0,1.34277,1.10352,0.01115,0.1056,1.34277,-0.00015,2.70146,1.2289,0.0,2.92969,2.64221,0.00613,0.0783,2.92969,0.00017,3.81625,6.98741,0.0,2.01416,1.76331,0.00923,0.09608,2.01416,-0.00036,3.78157,3.11848,-4.54102,0.0,-3.73364,0.11092,0.33304,4.54102,0.01497,4.05293,14.051,0.0,33.3374,32.526,0.0948,0.30789,33.3374,0.00382,2.79849,1058.03564,-3.41797,0.97656,-1.39038,0.42933,0.65523,4.39453,0.00288,3.20118,2.36249
96.0,-1.01648,0.0,-1.015,0.0,0.00072,1.01648,0.0,3.14883,1.03022,-0.00793,0.0,-0.0061,0.0,0.00057,0.00793,-0.0,2.98846,4e-05,-0.12476,0.0,-0.10838,0.0,0.00086,0.12476,-0.0,2.94355,0.01175,0.0,1.34277,1.10474,0.01084,0.10412,1.34277,-0.00012,2.75846,1.23128,0.0,2.92969,2.64404,0.00618,0.07858,2.92969,0.00015,3.75082,6.99714,0.0,2.01416,1.76575,0.00896,0.09466,2.01416,-0.00036,3.93638,3.12682,-4.54102,0.0,-3.73364,0.11092,0.33304,4.54102,0.01497,4.05293,14.051,0.0,33.3374,32.53247,0.09933,0.31517,33.3374,0.005,2.74626,1058.46118,-3.41797,0.97656,-1.38843,0.43032,0.65599,4.39453,0.00076,3.18715,2.35805
97.0,-1.01648,0.0,-1.015,0.0,0.00073,1.01648,0.0,3.12516,1.03024,-0.00793,0.0,-0.0061,0.0,0.00057,0.00793,-0.0,2.98791,4e-05,-0.12476,0.0,-0.10839,0.0,0.00087,0.12476,-0.0,2.89804,0.01175,0.0,1.34277,1.10596,0.01053,0.1026,1.34277,-0.0001,2.81522,1.23367,0.0,2.92969,2.64526,0.00627,0.07921,2.92969,0.00014,3.64147,7.00369,0.0,2.01416,1.76819,0.00897,0.09473,2.01416,-0.00039,3.97485,3.13546,-4.54102,0.0,-3.73047,0.10958,0.33103,4.54102,0.01442,4.12147,14.02598,0.0,33.3374,32.52686,0.1015,0.31859,33.3374,0.00562,2.69059,1058.09802,-3.41797,0.97656,-1.39966,0.43904,0.6626,4.39453,0.00679,3.10485,2.39809
98.0,-1.01648,0.0,-1.015,0.0,0.00072,1.01648,0.0,3.14768,1.03023,-0.00793,0.0,-0.0061,0.0,0.00057,0.00793,-0.0,3.02312,4e-05,-0.12476,0.0,-0.1084,0.0,0.00087,0.12476,-0.0,2.92594,0.01175,0.0,1.34277,1.10413,0.01044,0.10217,1.34277,-6e-05,2.84344,1.22953,0.0,2.92969,2.64404,0.00662,0.08138,2.92969,9e-05,3.66156,6.99758,0.0,2.01416,1.76636,0.00908,0.09527,2.01416,-0.00036,3.87515,3.12909,-4.54102,0.0,-3.72522,0.10752,0.32789,4.54102,0.01369,4.21735,13.98478,0.0,33.3374,32.53723,0.10263,0.32037,33.3374,0.00533,2.66847,1058.77417,-3.41797,0.97656,-1.39148,0.4438,0.66618,4.39453,-0.0006,3.05029,2.38001
99.0,-1.01648,0.0,-1.01499,0.0,0.00072,1.01648,0.0,3.11251,1.0302,-0.00793,0.0,-0.0061,0.0,0.00057,0.00793,-0.0,3.08869,4e-05,-0.12476,0.0,-0.1084,0.0,0.00087,0.12476,-0.0,2.92656,0.01175,0.0,1.34277,1.10535,0.01012,0.10062,1.34277,-3e-05,2.90091,1.23192,0.0,2.92969,2.64648,0.00682,0.08258,2.92969,9e-05,3.57505,7.01069,0.0,2.01416,1.76636,0.00908,0.09527,2.01416,-0.00036,3.87515,3.12909,-4.54102,0.0,-3.71851,0.10873,0.32974,4.54102,0.01243,4.11895,13.93601,0.0,33.3374,32.54041,0.10081,0.3175,33.3374,0.00523,2.72064,1058.97888,-3.41797,0.97656,-1.38257,0.43948,0.66293,4.39453,-0.00907,3.09998,2.35097
100.0,-1.01648,0.0,-1.01498,0.0,0.00073,1.01648,0.0,3.08369,1.03019,-0.00793,0.0,-0.00609,0.0,0.00057,0.00793,-0.0,3.09242,4e-05,-0.12476,0.0,-0.10842,0.0,0.00086,0.12476,-0.0,2.95647,0.01176,0.0,1.34277,1.10657,0.01026,0.10127,1.34277,-5e-05,2.84556,1.23475,0.0,2.92969,2.64648,0.00682,0.08258,2.92969,9e-05,3.57505,7.01069,0.0,2.01416,1.76697,0.00897,0.0947,2.01416,-0.00037,3.95651,3.13114,-4.54102,0.0,-3.71375,0.10732,0.3276,4.54102,0.01147,4.18853,13.89923,0.0,33.3374,32.54016,0.1008,0.31749,33.3374,0.0053,2.72156,1058.96301,-3.41797,0.97656,-1.38269,0.43943,0.6629,4.39453,-0.00891,3.10052,2.35127
101.0,-1.01648,0.0,-1.01498,0.0,0.00073,1.01648,0.0,3.09914,1.03019,-0.00793,0.0,-0.00609,0.0,0.00057,0.00793,-0.0,3.14479,4e-05,-0.12476,0.0,-0.10845,0.0,0.00091,0.12476,-0.0,3.52605,0.01176,0.0,1.34277,1.10718,0.01028,0.10141,1.34277,-7e-05,2.83264,1.23613,0.0,2.92969,2.64709,0.00698,0.08353,2.92969,0.0001,3.52618,7.01409,0.0,2.01416,1.7688,0.00886,0.09415,2.01416,-0.00039,4.06098,3.13751,-4.54102,0.0,-3.71143,0.10747,0.32783,4.54102,0.01076,4.16837,13.88215,0.0,33.3374,32.54138,0.10176,0.319,33.3374,0.0055,2.69732,1059.04333,-3.41797,0.97656,-1.3916,0.42983,0.65562,4.39453,-0.00682,3.18828,2.36639
102.0,-1.01648,0.0,-1.015,0.0,0.00072,1.01648,0.0,3.22919,1.03023,-0.00793,0.0,-0.00606,0.0,0.00054,0.00793,-0.0,2.51236,4e-05,-0.12476,0.0,-0.10846,0.0,0.00091,0.12476,-0.0,3.52812,0.01176,0.0,1.34277,1.1084,0.01041,0.10203,1.34277,-9e-05,2.78275,1.23896,0.0,2.92969,2.64832,0.00722,0.08497,2.92969,0.00012,3.4089,7.02079,0.0,2.01416,1.76758,0.00871,0.09333,2.01416,-0.00038,4.1493,3.13304,-4.54102,0.0,-3.7168,0.106,0.32557,4.54102,0.01179,4.28294,13.92058,0.0,33.3374,32.54138,0.10176,0.319,33.3374,0.0055,2.69732,1059.04333,-3.41797,0.97656,-1.39661,0.43586,0.66019,4.39453,-0.00607,3.12701,2.38637
103.0,-1.01648,0.0,-1.01499,0.0,0.00072,1.01648,0.0,3.23179,1.03021,-0.00793,0.0,-0.00606,0.0,0.00054,0.00793,-0.0,2.48471,4e-05,-0.12476,0.0,-0.10846,0.0,0.00091,0.12476,-0.0,3.53244,0.01176,0.0,1.34277,1.11023,0.01048,0.10238,1.34277,-0.00013,2.76339,1.24309,0.0,2.92969,2.64832,0.00722,0.08497,2.92969,0.00012,3.4089,7.02079,0.0,2.01416,1.76636,0.00855,0.09249,2.01416,-0.00037,4.24391,3.12857,-4.54102,0.0,-3.71411,0.10694,0.32701,4.54102,0.01122,4.20503,13.90156,0.0,33.3374,32.54224,0.10188,0.31919,33.3374,0.00526,2.68944,1059.099,-3.41797,0.97656,-1.40295,0.43591,0.66023,4.39453,0.00159,3.12604,2.40419
104.0,-1.01648,0.0,-1.01499,0.0,0.00071,1.01648,0.0,3.28498,1.0302,-0.00793,0.0,-0.00607,0.0,0.00055,0.00793,-0.0,2.43986,4e-05,-0.12476,0.0,-0.10848,0.0,0.00092,0.12476,-0.0,3.42442,0.01177,0.0,1.34277,1.11084,0.01058,0.10286,1.34277,-0.00014,2.72843,1.24454,0.0,2.92969,2.64893,0.0073,0.08545,2.92969,0.00011,3.34402,7.02411,0.0,2.01416,1.76575,0.00851,0.09226,2.01416,-0.00036,4.27128,3.12637,-4.54102,0.0,-3.71948,0.10924,0.33051,4.54102,0.01184,4.09615,13.94378,0.0,33.3374,32.54272,0.10205,0.31945,33.3374,0.00515,2.68057,1059.13098,-3.41797,0.97656,-1.38708,0.40812,0.63884,4.39453,0.02797,3.09483,2.33213
105.0,-1.01648,0.0,-1.015,0.0,0.00071,1.01648,0.0,3.25118,1.03022,-0.00793,0.0,-0.00608,0.0,0.00054,0.00793,-0.0,2.45062,4e-05,-0.12476,0.0,-0.10848,0.0,0.00092,0.12476,-0.0,3.41634,0.01177,0.0,1.34277,1.11267,0.01064,0.10317,1.34277,-0.00018,2.71597,1.24868,0.0,2.92969,2.64954,0.00738,0.08593,2.92969,0.00011,3.28167,7.02742,0.0,2.01416,1.76514,0.00854,0.09244,2.01416,-0.00034,4.22936,3.12425,-4.54102,0.0,-3.71448,0.11412,0.33782,4.54102,0.01406,3.95881,13.91147,0.0,33.3374,32.54468,0.10186,0.31915,33.3374,0.00459,2.68647,1059.25793,-3.41797,0.97656,-1.38623,0.4091,0.63961,4.39453,0.02778,3.08332,2.33074
106.0,-1.01648,0.0,-1.01499,0.0,0.00071,1.01648,0.0,3.22704,1.0302,-0.00793,0.0,-0.00608,0.0,0.00054,0.00793,-0.0,2.38601,4e-05,-0.12476,0.0,-0.1085,0.0,0.00093,0.12476,-0.0,3.33866,0.01177,0.0,1.34277,1.11145,0.01083,0.10404,1.34277,-0.00017,2.64705,1.24615,0.0,2.92969,2.6532,0.00808,0.08989,2.92969,0.00025,3.60922,7.04754,0.0,2.01416,1.76575,0.00866,0.09307,2.01416,-0.00034,4.15851,3.12652,-4.54102,0.0,-3.71252,0.11337,0.3367,4.54102,0.01363,3.99768,13.89621,0.0,33.3374,32.54871,0.09992,0.3161,33.3374,0.00423,2.74639,1059.51819,-3.41797,0.97656,-1.38599,0.40927,0.63974,4.39453,0.02756,3.0809,2.33023
107.0,-1.01648,0.0,-1.01501,0.0,0.00072,1.01648,0.0,3.25649,1.03024,-0.00793,0.0,-0.00609,0.0,0.00053,0.00793,-0.0,2.39864,4e-05,-0.12476,0.0,-0.10849,0.0,0.00092,0.12476,-0.0,3.37659,0.01177,0.0,1.34277,1.11023,0.01071,0.10347,1.34277,-0.00014,2.68711,1.24332,0.0,2.92969,2.65381,0.00808,0.0899,2.92969,0.00023,3.59863,7.05078,0.0,2.01416,1.76575,0.00866,0.09307,2.01416,-0.00034,4.15851,3.12652,-4.54102,0.0,-3.71509,0.11157,0.33402,4.54102,0.0135,4.09848,13.91345,0.0,33.3374,32.54663,0.09854,0.31391,33.3374,0.00414,2.79298,1059.38171,-3.41797,0.97656,-1.37537,0.44391,0.66626,4.39453,0.10171,3.63918,2.33554
108.0,-1.01648,0.0,-1.01499,0.0,0.00072,1.01648,0.0,3.25021,1.03021,-0.00793,0.0,-0.00609,0.0,0.00053,0.00793,-0.0,2.38413,4e-05,-0.12476,0.0,-0.10848,0.0,0.00092,0.12476,-0.0,3.43023,0.01177,0.0,1.34277,1.1084,0.01086,0.1042,1.34277,-0.00011,2.63112,1.2394,0.0,2.92969,2.6532,0.00808,0.08989,2.92969,0.00025,3.60922,7.04754,0.0,2.01416,1.76392,0.00875,0.09357,2.01416,-0.00031,4.06144,3.12015,-4.54102,0.0,-3.71338,0.111,0.33316,4.54102,0.01309,4.13023,13.90018,0.0,33.3374,32.54602,0.09831,0.31355,33.3374,0.00426,2.80532,1059.34167,-3.41797,0.97656,-1.37183,0.44469,0.66685,4.39453,0.09723,3.61965,2.3266
109.0,-1.01648,0.0,-1.015,0.0,0.00072,1.01648,0.0,3.23506,1.03022,-0.00793,0.0,-0.00609,0.0,0.00053,0.00793,-0.0,2.3932,4e-05,-0.12476,0.0,-0.10849,0.0,0.00092,0.12476,-0.0,3.39165,0.01177,0.0,1.34277,1.10718,0.01073,0.10359,1.34277,-8e-05,2.67556,1.23657,0.0,2.92969,2.6532,0.00808,0.08989,2.92969,0.00025,3.60922,7.04754,0.0,2.01416,1.76392,0.00875,0.09357,2.01416,-0.00031,4.06144,3.12015,-4.54102,0.0,-3.71521,0.11231,0.33512,4.54102,0.01299,4.07035,13.91509,0.0,33.3374,32.54443,0.09752,0.31228,33.3374,0.00442,2.84252,1059.23755,-3.41797,0.97656,-1.36072,0.44643,0.66816,4.39453,0.08601,3.57652,2.29798
110.0,-1.01648,0.0,-1.01502,0.0,0.00068,1.01648,0.0,2.49013,1.03027,-0.00793,0.0,-0.00608,0.0,0.00053,0.00793,-0.0,2.39845,4e-05,-0.12476,0.0,-0.10849,0.0,0.00092,0.12476,-0.0,3.35357,0.01177,0.0,1.34277,1.10657,0.01093,0.10453,1.34277,-0.00011,2.66648,1.23542,0.0,2.92969,2.65381,0.00808,0.0899,2.92969,0.00023,3.59863,7.05078,0.0,2.01416,1.76453,0.0088,0.0938,2.01416,-0.00033,4.03326,3.12235,-4.54102,0.0,-3.71729,0.11241,0.33528,4.54102,0.01366,4.07173,13.93062,0.0,33.3374,32.54114,0.09651,0.31066,33.3374,0.00505,2.89817,1059.02197,-3.41797,0.97656,-1.34155,0.46617,0.68277,4.39453,0.09262,3.46348,2.26593
111.0,-1.01648,0.0,-1.01504,0.0,0.00065,1.01648,0.0,2.38529,1.03031,-0.00793,0.0,-0.00608,0.0,0.00054,0.00793,-0.0,2.36065,4e-05,-0.12476,0.0,-0.1085,0.0,0.00092,0.12476,-0.0,3.34531,0.01177,0.0,1.34277,1.10962,0.01031,0.10154,1.34277,-4e-05,2.61512,1.24156,0.0,2.92969,2.65381,0.00808,0.0899,2.92969,0.00023,3.59863,7.05078,0.0,2.01416,1.76331,0.00863,0.09292,2.01416,-0.00031,4.13069,3.11788,-4.54102,0.0,-3.72351,0.1148,0.33882,4.54102,0.01449,3.97905,13.97933,0.0,33.3374,32.54102,0.09656,0.31075,33.3374,0.00507,2.89576,1059.01416,-3.41797,0.97656,-1.3313,0.46829,0.68432,4.39453,0.08127,3.42119,2.24065
112.0,-1.01648,0.0,-1.01505,0.0,0.00065,1.01648,0.0,2.42931,1.03032,-0.00793,0.0,-0.00608,0.0,0.00053,0.00793,-0.0,2.37938,4e-05,-0.12476,0.0,-0.10849,0.0,0.00093,0.12476,-0.0,3.32263,0.01177,0.0,1.34277,1.10535,0.01012,0.10062,1.34277,-0.00011,2.53248,1.23192,0.0,2.92969,2.65625,0.00823,0.09073,2.92969,0.00022,3.50673,7.06389,0.0,2.01416,1.76514,0.00877,0.09364,2.01416,-0.00034,4.07105,3.12448,-4.54102,0.0,-3.73645,0.1042,0.3228,4.54102,0.00681,3.73576,14.06526,0.0,33.3374,32.53955,0.09655,0.31073,33.3374,0.00549,2.89971,1058.9187,-3.41797,0.97656,-1.3324,0.46803,0.68413,4.39453,0.08277,3.42656,2.24332
113.0,-1.01648,0.0,-1.01504,0.0,0.00065,1.01648,0.0,2.4059,1.03032,-0.00793,0.0,-0.00607,0.0,0.00054,0.00793,-0.0,2.36245,4e-05,-0.12476,0.0,-0.10848,0.0,0.00093,0.12476,-0.0,3.32397,0.01177,0.0,1.34277,1.10413,0.01029,0.10143,1.34277,-9e-05,2.47318,1.22938,0.0,2.92969,2.65747,0.00815,0.09029,2.92969,0.00019,3.54854,7.0703,0.0,2.01416,1.76575,0.00889,0.09426,2.01416,-0.00034,4.00496,3.12675,-4.54102,0.0,-3.73291,0.10519,0.32433,4.54102,0.00602,3.66672,14.03981,0.0,33.3374,32.54285,0.09548,0.309,33.3374,0.00489,2.94493,1059.13232,-3.41797,0.97656,-1.30286,0.51054,0.71452,4.39453,0.14972,3.70724,2.20798
114.0,-1.01648,0.0,-1.01504,0.0,0.00065,1.01648,0.0,2.42928,1.03031,-0.00793,0.0,-0.00609,0.0,0.00053,0.00793,-0.0,2.3905,4e-05,-0.12476,0.0,-0.10848,0.0,0.00093,0.12476,-0.0,3.3412,0.01177,0.0,1.34277,1.10229,0.00997,0.09985,1.34277,-0.0001,2.52452,1.22502,0.0,2.92969,2.65747,0.00815,0.09029,2.92969,0.00019,3.54854,7.0703,0.0,2.01416,1.76575,0.00889,0.09426,2.01416,-0.00034,4.00496,3.12675,-4.54102,0.0,-3.74756,0.09324,0.30536,4.54102,-0.00478,2.74016,14.13744,0.0,33.3374,32.5426,0.09548,0.309,33.3374,0.00496,2.94549,1059.11633,-3.41797,0.97656,-1.30188,0.51313,0.71633,4.39453,0.15338,3.70234,2.20803
115.0,-1.01648,0.0,-1.01502,0.0,0.00064,1.01648,0.0,2.43446,1.03027,-0.00793,0.0,-0.00609,0.0,0.00053,0.00793,-0.0,2.38037,4e-05,-0.12476,0.0,-0.10846,0.0,0.00091,0.12476,-0.0,3.47402,0.01176,0.0,1.34277,1.10168,0.01016,0.1008,1.34277,-0.00012,2.52135,1.22387,0.0,2.92969,2.65564,0.00838,0.09155,2.92969,0.0002,3.45816,7.0608,0.0,2.01416,1.76453,0.00887,0.0942,2.01416,-0.00031,3.99447,3.12243,-4.54102,0.0,-3.75012,0.09195,0.30324,4.54102,-0.0046,2.78755,14.15537,0.0,33.3374,32.54236,0.09563,0.30923,33.3374,0.00496,2.93991,1059.10046,-3.41797,0.97656,-1.27881,0.55662,0.74607,4.39453,0.20854,3.71531,2.19197
116.0,-1.01648,0.0,-1.01501,0.0,0.00063,1.01648,0.0,2.47591,1.03025,-0.00793,0.0,-0.00609,0.0,0.00052,0.00793,-0.0,2.43274,4e-05,-0.12476,0.0,-0.10844,0.0,0.00092,0.12476,-0.0,3.47443,0.01176,0.0,1.34277,1.10352,0.01026,0.10128,1.34277,-0.00016,2.50038,1.228,0.0,2.92969,2.65442,0.00831,0.09114,2.92969,0.00023,3.52562,7.05424,0.0,2.01416,1.76636,0.00855,0.09249,2.01416,-0.0003,4.18929,3.12857,-4.54102,0.0,-3.76025,0.09415,0.30684,4.54102,-0.00473,2.77064,14.23366,0.0,33.3374,32.54712,0.09626,0.31025,33.3374,0.00393,2.90064,1059.41101,-3.41797,0.97656,-1.27209,0.56006,0.74837,4.39453,0.19937,3.65626,2.17829
117.0,-1.01648,0.0,-1.01502,0.0,0.00063,1.01648,0.0,2.4669,1.03026,-0.00793,0.0,-0.00609,0.0,0.00052,0.00793,-0.0,2.46969,4e-05,-0.12476,0.0,-0.10844,0.0,0.00092,0.12476,-0.0,3.47443,0.01176,0.0,1.34277,1.10413,0.01029,0.10143,1.34277,-0.00018,2.49017,1.22938,0.0,2.92969,2.65503,0.00823,0.09074,2.92969,0.00022,3.57128,7.05741,0.0,2.01416,1.76636,0.00855,0.09249,2.01416,-0.0003,4.18929,3.12857,-4.54102,0.0,-3.76379,0.09201,0.30334,4.54102,-0.00482,2.83108,14.25816,0.0,33.3374,32.53992,0.0988,0.31433,33.3374,0.00443,2.84935,1058.94482,-3.41797,0.97656,-1.26843,0.5606,0.74873,4.39453,0.19339,3.64018,2.16952
118.0,-1.01648,0.0,-1.01501,0.0,0.00063,1.01648,0.0,2.48642,1.03025,-0.00793,0.0,-0.00609,0.0,0.00052,0.00793,-0.0,2.42606,4e-05,-0.12476,0.0,-0.10843,0.0,0.00091,0.12476,-0.0,3.51602,0.01176,0.0,1.34277,1.10352,0.01033,0.10165,1.34277,-0.00016,2.46715,1.22808,0.0,2.92969,2.65564,0.00831,0.09114,2.92969,0.00021,3.51017,7.06073,0.0,2.01416,1.76697,0.00867,0.09312,2.01416,-0.0003,4.1185,3.13085,-4.54102,0.0,-3.76196,0.09196,0.30325,4.54102,-0.0053,2.83878,14.24433,0.0,33.3374,32.53906,0.0992,0.31496,33.3374,0.00454,2.8326,1058.88965,-3.41797,0.97656,-1.25574,0.56506,0.75171,4.39453,0.17825,3.5655,2.14194
119.0,-1.01648,0.0,-1.01502,0.0,0.00063,1.01648,0.0,2.47006,1.03026,-0.00793,0.0,-0.00609,0.0,0.00052,0.00793,-0.0,2.45597,4e-05,-0.12476,0.0,-0.10842,0.0,0.00092,0.12476,-0.0,3.5108,0.01176,0.0,1.34277,1.10474,0.01032,0.10158,1.34277,-0.00019,2.48075,1.23076,0.0,2.92969,2.65503,0.00838,0.09155,2.92969,0.00022,3.46519,7.05756,0.0,2.01416,1.76636,0.00863,0.09289,2.01416,-0.00029,4.14612,3.12865,-4.54102,0.0,-3.75769,0.09337,0.30556,4.54102,-0.00595,2.78832,14.21361,0.0,33.3374,32.5426,0.09952,0.31548,33.3374,0.00362,2.81051,1059.12036,-3.41797,0.97656,-1.245,0.57068,0.75544,4.39453,0.16525,3.48527,2.1207
120.0,-1.01648,0.0,-1.01503,0.0,0.00063,1.01648,0.0,2.51078,1.03029,-0.00793,0.0,-0.00608,0.0,0.00052,0.00793,-0.0,2.45626,4e-05,-0.12476,0.0,-0.10842,0.0,0.00092,0.12476,-0.0,3.46166,0.01175,0.0,1.34277,1.10352,0.01048,0.10238,1.34277,-0.00018,2.42033,1.22823,0.0,2.92969,2.65625,0.00845,0.09195,2.92969,0.0002,3.40091,7.06412,0.0,2.01416,1.76697,0.00875,0.09352,2.01416,-0.00029,4.07626,3.13092,-4.54102,0.0,-3.75049,0.09373,0.30615,4.54102,-0.00702,2.79896,14.15989,0.0,33.3374,32.54089,0.09872,0.3142,33.3374,0.00383,2.84867,1059.0083,-3.41797,0.97656,-1.25354,0.57458,0.75801,4.39453,0.17704,3.46145,2.14594
121.0,-1.01648,0.0,-1.01504,0.0,0.00063,1.01648,0.0,2.5053,1.0303,-0.00793,0.0,-0.00607,0.0,0.00052,0.00793,-0.0,2.51869,4e-05,-0.12476,0.0,-0.10842,0.0,0.00091,0.12476,-0.0,3.52178,0.01176,0.0,1.34277,1.10229,0.01049,0.10243,1.34277,-0.00014,2.40915,1.22555,0.0,2.92969,2.65503,0.00838,0.09155,2.92969,0.00022,3.46519,7.05756,0.0,2.01416,1.76697,0.00875,0.09352,2.01416,-0.00029,4.07626,3.13092,-4.54102,0.0,-3.75659,0.09425,0.307,4.54102,-0.0059,2.76139,14.20623,0.0,33.3374,32.53381,0.09898,0.31461,33.3374,0.00504,2.85345,1058.54797,-3.41797,0.97656,-1.25537,0.57456,0.758,4.39453,0.18018,3.46556,2.15052
122.0,-1.01648,0.0,-1.01503,0.0,0.00063,1.01648,0.0,2.47409,1.03029,-0.00793,0.0,-0.00606,0.0,0.00051,0.00793,-0.0,2.51725,4e-05,-0.12476,0.0,-0.10842,0.0,0.00091,0.12476,-0.0,3.52237,0.01176,0.0,1.34277,1.10107,0.01065,0.10319,1.34277,-0.00012,2.35476,1.22301,0.0,2.92969,2.65564,0.00838,0.09155,2.92969,0.0002,3.45816,7.0608,0.0,2.01416,1.76514,0.00862,0.09284,2.01416,-0.00026,4.13712,3.12433,-4.54102,0.0,-3.7583,0.09421,0.30694,4.54102,-0.00543,2.75896,14.21904,0.0,33.3374,32.52954,0.09767,0.31253,33.3374,0.0058,2.92103,1058.26855,-3.41797,0.97656,-1.24048,0.57428,0.75782,4.39453,0.16278,3.43702,2.11307
123.0,-1.01648,0.0,-1.01502,0.0,0.00062,1.01648,0.0,2.49271,1.03026,-0.00793,0.0,-0.00607,0.0,0.00051,0.00793,-0.0,2.56187,4e-05,-0.12476,0.0,-0.10841,0.0,0.00092,0.12476,-0.0,3.48267,0.01175,0.0,1.34277,1.09802,0.01159,0.10763,1.34277,-0.00031,2.62358,1.21724,0.0,2.92969,2.65808,0.00822,0.09068,2.92969,0.00019,3.48963,7.07362,0.0,2.01416,1.76514,0.00862,0.09284,2.01416,-0.00026,4.13712,3.12433,-4.54102,0.0,-3.75854,0.09421,0.30694,4.54102,-0.00536,2.75867,14.22087,0.0,33.3374,32.53247,0.09896,0.31459,33.3374,0.00543,2.85704,1058.46045,-3.41797,0.97656,-1.24158,0.57243,0.75659,4.39453,0.16232,3.45341,2.11394
124.0,-1.01648,0.0,-1.01502,0.0,0.00063,1.01648,0.0,2.46572,1.03027,-0.00793,0.0,-0.00607,0.0,0.00051,0.00793,-0.0,2.52879,4e-05,-0.12476,0.0,-0.10842,0.0,0.00092,0.12476,-0.0,3.459,0.01176,0.0,1.34277,1.09985,0.0117,0.10815,1.34277,-0.00035,2.60689,1.22137,0.0,2.92969,2.65869,0.00822,0.09066,2.92969,0.00017,3.4865,7.07686,0.0,2.01416,1.76514,0.00862,0.09284,2.01416,-0.00026,4.13712,3.12433,-4.54102,0.0,-3.7616,0.0938,0.30626,4.54102,-0.00462,2.77341,14.24341,0.0,33.3374,32.53394,0.09814,0.31327,33.3374,0.00535,2.8875,1058.55493,-3.41797,0.97656,-1.23975,0.57136,0.75589,4.39453,0.15966,3.4621,2.10833
125.0,-1.01648,0.0,-1.01501,0.0,0.00062,1.01648,0.0,2.48716,1.03026,-0.00793,0.0,-0.00607,0.0,0.00051,0.00793,-0.0,2.56187,4e-05,-0.12476,0.0,-0.10842,0.0,0.00092,0.12476,-0.0,3.38966,0.01176,0.0,1.34277,1.09863,0.01155,0.10746,1.34277,-0.00033,2.64516,1.21854,0.0,2.92969,2.65808,0.00815,0.09027,2.92969,0.00018,3.54448,7.07354,0.0,2.01416,1.76636,0.00848,0.09209,2.01416,-0.00028,4.26484,3.1285,-4.54102,0.0,-3.77026,0.09422,0.30695,4.54102,-0.00382,2.75006,14.30911,0.0,33.3374,32.53162,0.09794,0.31296,33.3374,0.00599,2.90379,1058.40381,-3.41797,0.97656,-1.21545,0.53463,0.73118,4.39453,0.19685,3.36761,2.01196
126.0,-1.01648,0.0,-1.01502,0.0,0.00063,1.01648,0.0,2.45879,1.03027,-0.00793,0.0,-0.00607,0.0,0.00051,0.00793,-0.0,2.5743,4e-05,-0.12476,0.0,-0.10843,0.0,0.00092,0.12476,-0.0,3.41047,0.01176,0.0,1.34277,1.0968,0.01143,0.10693,1.34277,-0.00029,2.66504,1.21441,0.0,2.92969,2.65808,0.00815,0.09027,2.92969,0.00018,3.54448,7.07354,0.0,2.01416,1.76575,0.00844,0.09186,2.01416,-0.00026,4.29579,3.1263,-4.54102,0.0,-3.77612,0.09664,0.31087,4.54102,-0.00339,2.67161,14.35574,0.0,33.3374,32.53333,0.09828,0.31349,33.3374,0.00555,2.88131,1058.51526,-3.41797,0.97656,-1.20398,0.53942,0.73445,4.39453,0.18364,3.29032,1.98899
127.0,-1.01648,0.0,-1.01502,0.0,0.00063,1.01648,0.0,2.47582,1.03028,-0.00793,0.0,-0.00607,0.0,0.00051,0.00793,-0.0,2.56746,4e-05,-0.12476,0.0,-0.10843,0.0,0.00092,0.12476,-0.0,3.41047,0.01176,0.0,1.34277,1.0968,0.01143,0.10693,1.34277,-0.00029,2.66504,1.21441,0.0,2.92969,2.6593,0.00836,0.09145,2.92969,0.00018,3.42248,7.08025,0.0,2.01416,1.76514,0.00854,0.09244,2.01416,-0.00026,4.20564,3.12425,-4.54102,0.0,-3.77649,0.09643,0.31054,4.54102,-0.00337,2.67897,14.3583,0.0,33.3374,32.53137,0.09809,0.31319,33.3374,0.00609,2.89664,1058.38806,-3.41797,0.97656,-1.19238,0.53876,0.734,4.39453,0.16881,3.26874,1.96053
128.0,-1.01648,0.0,-1.01502,0.0,0.00063,1.01648,0.0,2.47582,1.03028,-0.00793,0.0,-0.00606,0.0,0.00051,0.00793,-0.0,2.57889,4e-05,-0.12476,0.0,-0.10844,0.0,0.00091,0.12476,-0.0,3.46667,0.01176,0.0,1.34277,1.0968,0.01143,0.10693,1.34277,-0.00029,2.66504,1.21441,0.0,2.92969,2.66113,0.00812,0.09012,2.92969,0.00018,3.51603,7.08975,0.0,2.01416,1.76453,0.0085,0.0922,2.01416,-0.00025,4.23761,3.12205,-4.54102,0.0,-3.76843,0.09093,0.30155,4.54102,-0.00151,2.65157,14.29202,0.0,33.3374,32.53418,0.09757,0.31236,33.3374,0.0054,2.91774,1058.57019,-3.41797,0.97656,-1.19604,0.54047,0.73517,4.39453,0.17401,3.25766,1.97099
129.0,-1.01648,0.0,-1.01504,0.0,0.00062,1.01648,0.0,2.50712,1.0303,-0.00793,0.0,-0.00605,0.0,0.00052,0.00793,-0.0,2.54061,4e-05,-0.12476,0.0,-0.10845,0.0,0.00093,0.12476,-0.0,3.34144,0.01176,0.0,1.34277,1.09558,0.01113,0.1055,1.34277,-0.00031,2.7066,1.21143,0.0,2.92969,2.66174,0.00811,0.09007,2.92969,0.00016,3.51628,7.09299,0.0,2.01416,1.76392,0.00846,0.09196,2.01416,-0.00024,4.27109,3.11986,-4.54102,0.0,-3.76978,0.09004,0.30007,4.54102,-0.0016,2.67803,14.30125,0.0,33.3374,32.5271,0.10274,0.32053,33.3374,0.0038,2.89713,1058.11475,-3.41797,0.97656,-1.18909,0.53915,0.73427,4.39453,0.16378,3.25635,1.95307
130.0,-1.01648,0.0,-1.01503,0.0,0.00062,1.01648,0.0,2.55299,1.03028,-0.00793,0.0,-0.00605,0.0,0.00051,0.00793,-0.0,2.57723,4e-05,-0.12476,0.0,-0.10846,0.0,0.00093,0.12476,-0.0,3.26418,0.01176,0.0,1.34277,1.09558,0.01113,0.1055,1.34277,-0.00031,2.7066,1.21143,0.0,2.92969,2.66174,0.00811,0.09007,2.92969,0.00016,3.51628,7.09299,0.0,2.01416,1.76392,0.00846,0.09196,2.01416,-0.00024,4.27109,3.11986,-4.54102,0.0,-3.76855,0.09018,0.3003,4.54102,-0.00191,2.6709,14.29219,0.0,33.3374,32.52368,0.10294,0.32085,33.3374,0.00475,2.89219,1057.89246,-3.41797,0.97656,-1.18176,0.54131,0.73574,4.39453,0.15337,3.2168,1.93787
131.0,-1.01648,0.0,-1.01501,0.0,0.0006,1.01648,0.0,2.46394,1.03024,-0.00793,0.0,-0.00606,0.0,0.00051,0.00793,-0.0,2.60369,4e-05,-0.12476,0.0,-0.10846,0.0,0.00093,0.12476,-0.0,3.30455,0.01176,0.0,1.34277,1.09436,0.01112,0.10545,1.34277,-0.00027,2.69909,1.20874,0.0,2.92969,2.66113,0.00812,0.09012,2.92969,0.00018,3.51603,7.08975,0.0,2.01416,1.76392,0.00846,0.09196,2.01416,-0.00024,4.27109,3.11986,-4.54102,0.0,-3.77209,0.09188,0.30312,4.54102,-0.00166,2.60584,14.32058,0.0,33.3374,32.52002,0.10171,0.31892,33.3374,0.00544,2.95527,1057.65308,-3.41797,0.97656,-1.1698,0.53089,0.72862,4.39453,0.14522,3.2785,1.89932
132.0,-1.01648,0.0,-1.01501,0.0,0.0006,1.01648,0.0,2.5174,1.03025,-0.00793,0.0,-0.00608,0.0,0.00052,0.00793,-0.0,2.59993,4e-05,-0.12476,0.0,-0.10845,0.0,0.00092,0.12476,-0.0,3.41781,0.01176,0.0,1.34277,1.09375,0.01108,0.10525,1.34277,-0.00025,2.71331,1.20737,0.0,2.92969,2.66052,0.0082,0.09057,2.92969,0.00018,3.46609,7.08658,0.0,2.01416,1.76392,0.00846,0.09196,2.01416,-0.00024,4.27109,3.11986,-4.54102,0.0,-3.77698,0.09424,0.30698,4.54102,-0.00145,2.53624,14.3598,0.0,33.3374,32.51819,0.1028,0.32063,33.3374,0.0055,2.9167,1057.53503,-3.41797,0.97656,-1.16345,0.52431,0.7241,4.39453,0.14092,3.33038,1.87794
133.0,-1.01648,0.0,-1.01501,0.0,0.0006,1.01648,0.0,2.53149,1.03026,-0.00793,0.0,-0.00608,0.0,0.00052,0.00793,-0.0,2.59901,4e-05,-0.12476,0.0,-0.10842,0.0,0.00093,0.12476,-0.0,3.38138,0.01176,0.0,1.34277,1.09497,0.01109,0.1053,1.34277,-0.00029,2.71955,1.21005,0.0,2.92969,2.66113,0.0082,0.09053,2.92969,0.00017,3.46545,7.08982,0.0,2.01416,1.76514,0.00877,0.09364,2.01416,-0.0002,4.14903,3.12448,-4.54102,0.0,-3.77368,0.09486,0.308,4.54102,-0.0022,2.5106,14.33554,0.0,33.3374,32.52075,0.10233,0.3199,33.3374,0.00481,2.93624,1057.70129,-3.41797,0.97656,-1.16602,0.52732,0.72617,4.39453,0.14227,3.30551,1.88692
134.0,-1.01648,0.0,-1.01503,0.0,0.00059,1.01648,0.0,2.59865,1.03029,-0.00793,0.0,-0.00608,0.0,0.00052,0.00793,-0.0,2.59,4e-05,-0.12476,0.0,-0.10842,0.0,0.00093,0.12476,-0.0,3.39,0.01176,0.0,1.34277,1.09131,0.01194,0.10928,1.34277,-0.00043,2.87166,1.2029,0.0,2.92969,2.66235,0.0084,0.09167,2.92969,0.00017,3.34908,7.09653,0.0,2.01416,1.76392,0.00875,0.09357,2.01416,-0.00018,4.14836,3.12015,-4.54102,0.0,-3.78333,0.08944,0.29907,4.54102,-0.00407,2.38683,14.40299,0.0,33.3374,32.51941,0.10232,0.31987,33.3374,0.00522,2.93965,1057.61401,-3.41797,0.97656,-1.1604,0.53792,0.73343,4.39453,0.14873,3.23624,1.88445
135.0,-1.01648,0.0,-1.01503,0.0,0.00059,1.01648,0.0,2.57317,1.03028,-0.00793,0.0,-0.00606,0.0,0.00052,0.00793,-0.0,2.63971,4e-05,-0.12476,0.0,-0.10841,0.0,0.00093,0.12476,-0.0,3.42215,0.01175,0.0,1.34277,1.09009,0.01177,0.10851,1.34277,-0.00041,2.91891,1.20006,0.0,2.92969,2.66479,0.00881,0.09385,2.92969,0.00019,3.25273,7.10994,0.0,2.01416,1.76575,0.00866,0.09307,2.01416,-0.0002,4.23398,3.12652,-4.54102,0.0,-3.78979,0.08965,0.29941,4.54102,-0.00301,2.36985,14.45219,0.0,33.3374,32.52026,0.10154,0.31865,33.3374,0.0055,2.95124,1057.66882,-3.41797,0.97656,-1.14771,0.52104,0.72183,4.39453,0.15051,3.31629,1.83827
136.0,-1.01648,0.0,-1.01502,0.0,0.00059,1.01648,0.0,2.58885,1.03028,-0.00793,0.0,-0.00605,0.0,0.00052,0.00793,-0.0,2.61711,4e-05,-0.12476,0.0,-0.1084,0.0,0.00091,0.12476,-0.0,3.54121,0.01175,0.0,1.34277,1.09009,0.01177,0.10851,1.34277,-0.00041,2.91891,1.20006,0.0,2.92969,2.66418,0.00889,0.09431,2.92969,0.0002,3.20901,7.10677,0.0,2.01416,1.76453,0.0088,0.0938,2.01416,-0.00019,4.115,3.12235,-4.54102,0.0,-3.79822,0.08979,0.29965,4.54102,-0.00224,2.35763,14.51625,0.0,33.3374,32.52393,0.09883,0.31438,33.3374,0.00601,3.01238,1057.9043,-3.41797,0.97656,-1.15381,0.5359,0.73205,4.39453,0.13249,3.30996,1.86718
137.0,-1.01648,0.0,-1.01502,0.0,0.00059,1.01648,0.0,2.57125,1.03026,-0.00793,0.0,-0.00605,0.0,0.00052,0.00793,-0.0,2.59849,4e-05,-0.12476,0.0,-0.10838,0.0,0.00089,0.12476,-0.0,3.69199,0.01175,0.0,1.34277,1.08887,0.0119,0.10909,1.34277,-0.00038,2.85489,1.19753,0.0,2.92969,2.66357,0.0089,0.09437,2.92969,0.00022,3.2079,7.10353,0.0,2.01416,1.76514,0.00877,0.09364,2.01416,-0.0002,4.14903,3.12447,-4.54102,0.0,-3.79382,0.08989,0.29982,4.54102,-0.00321,2.35934,14.48299,0.0,33.3374,32.52502,0.09782,0.31276,33.3374,0.0064,3.02633,1057.97485,-3.41797,0.97656,-1.14185,0.54905,0.74098,4.39453,0.12814,3.19018,1.85286
138.0,-1.01648,0.0,-1.01501,0.0,0.00059,1.01648,0.0,2.55754,1.03025,-0.00793,0.0,-0.00604,0.0,0.00051,0.00793,-0.0,2.63205,4e-05,-0.12476,0.0,-0.10838,0.0,0.00089,0.12476,-0.0,3.72502,0.01175,0.0,1.34277,1.08704,0.0122,0.11044,1.34277,-0.00037,2.75887,1.19384,0.0,2.92969,2.66418,0.00897,0.0947,2.92969,0.0002,3.16191,7.10685,0.0,2.01416,1.76697,0.00889,0.09431,2.01416,-0.00023,4.08268,3.13107,-4.54102,0.0,-3.79333,0.08991,0.29986,4.54102,-0.00334,2.35903,14.47931,0.0,33.3374,32.52747,0.09522,0.30858,33.3374,0.0078,3.01559,1058.1311,-3.41797,0.97656,-1.1394,0.54741,0.73987,4.39453,0.12499,3.20382,1.84565
139.0,-1.01648,0.0,-1.01501,0.0,0.00059,1.01648,0.0,2.56209,1.03026,-0.00793,0.0,-0.00604,0.0,0.00051,0.00793,-0.0,2.66556,4e-05,-0.12476,0.0,-0.10836,0.0,0.0009,0.12476,-0.0,3.685,0.01174,0.0,1.34277,1.08459,0.01184,0.10879,1.34277,-0.00036,2.79954,1.18818,0.0,2.92969,2.66602,0.00916,0.09568,2.92969,0.00018,3.06616,7.11679,0.0,2.01416,1.7688,0.00879,0.09376,2.01416,-0.00026,4.17825,3.13744,-4.54102,0.0,-3.79663,0.08852,0.29752,4.54102,-0.00299,2.40308,14.50292,0.0,33.3374,32.52771,0.09524,0.3086,33.3374,0.00773,3.01387,1058.14697,-3.41797,0.97656,-1.14063,0.54919,0.74107,4.39453,0.12505,3.19143,1.85021
140.0,-1.01648,0.0,-1.01501,0.0,0.00059,1.01648,0.0,2.54789,1.03025,-0.00793,0.0,-0.00603,0.0,0.00051,0.00793,-0.0,2.74589,4e-05,-0.12476,0.0,-0.10836,0.0,0.0009,0.12476,-0.0,3.67944,0.01174,0.0,1.34277,1.08337,0.01195,0.10931,1.34277,-0.00032,2.7444,1.18565,0.0,2.92969,2.66541,0.00917,0.09575,2.92969,0.0002,3.06337,7.11355,0.0,2.01416,1.77002,0.00849,0.09216,2.01416,-0.00023,4.3398,3.14146,-4.54102,0.0,-3.7948,0.09006,0.30009,4.54102,-0.0025,2.3944,14.49056,0.0,33.3374,32.52527,0.09461,0.3076,33.3374,0.00827,3.05801,1057.98755,-3.41797,0.97656,-1.14954,0.55956,0.74804,4.39453,0.12904,3.12425,1.881
141.0,-1.01648,0.0,-1.01502,0.0,0.00059,1.01648,0.0,2.57467,1.03026,-0.00793,0.0,-0.00602,0.0,0.0005,0.00793,-0.0,2.83136,4e-05,-0.12476,0.0,-0.10836,0.0,0.0009,0.12476,-0.0,3.69707,0.01174,0.0,1.34277,1.08276,0.01189,0.10905,1.34277,-0.00031,2.76254,1.18427,0.0,2.92969,2.66418,0.00956,0.0978,2.92969,0.00013,3.08435,7.10744,0.0,2.01416,1.7688,0.00819,0.09052,2.01416,-0.00026,4.47743,3.13684,-4.54102,0.0,-3.79077,0.08939,0.29898,4.54102,-0.00334,2.42829,14.45934,0.0,33.3374,32.52795,0.09635,0.3104,33.3374,0.00839,2.98495,1058.16394,-3.41797,0.97656,-1.15442,0.55964,0.74809,4.39453,0.13695,3.13174,1.89232
142.0,-1.01648,0.0,-1.01503,0.0,0.00058,1.01648,0.0,2.6475,1.03029,-0.00793,0.0,-0.00602,0.0,0.0005,0.00793,-0.0,2.81313,4e-05,-0.12476,0.0,-0.10836,0.0,0.0009,0.12476,-0.0,3.68303,0.01174,0.0,1.34277,1.08215,0.01191,0.10913,1.34277,-0.00029,2.74959,1.18297,0.0,2.92969,2.66357,0.00965,0.09823,2.92969,0.00014,3.04431,7.10427,0.0,2.01416,1.76697,0.0083,0.09109,2.01416,-0.00024,4.36731,3.13047,-4.54102,0.0,-3.77795,0.08986,0.29977,4.54102,-0.0015,2.46634,14.3628,0.0,33.3374,32.52173,0.09239,0.30395,33.3374,0.00765,3.08594,1057.755,-3.41797,0.97656,-1.15918,0.55868,0.74745,4.39453,0.14452,3.15069,1.90237
143.0,-1.01648,0.0,-1.01504,0.0,0.00059,1.01648,0.0,2.60838,1.0303,-0.00793,0.0,-0.00602,0.0,0.0005,0.00793,-0.0,2.79362,4e-05,-0.12476,0.0,-0.10838,0.0,0.00088,0.12476,-0.0,3.78124,0.01175,0.0,1.34277,1.08276,0.01197,0.10939,1.34277,-0.0003,2.73097,1.18434,0.0,2.92969,2.66235,0.00974,0.09871,2.92969,0.00017,3.00418,7.09787,0.0,2.01416,1.76575,0.00844,0.09186,2.01416,-0.00022,4.23545,3.1263,-4.54102,0.0,-3.77905,0.08957,0.29927,4.54102,-0.00127,2.48035,14.37081,0.0,33.3374,32.51672,0.08963,0.29939,33.3374,0.00757,3.20264,1057.42676,-3.41797,0.97656,-1.15796,0.55897,0.74764,4.39453,0.14253,3.14515,1.89984
144.0,-1.01648,0.0,-1.01503,0.0,0.00058,1.01648,0.0,2.60124,1.03029,-0.00793,0.0,-0.00602,0.0,0.0005,0.00793,-0.0,2.79205,4e-05,-0.12476,0.0,-0.10838,0.0,0.00088,0.12476,-0.0,3.77913,0.01175,0.0,1.34277,1.08154,0.01178,0.10853,1.34277,-0.00029,2.78248,1.18151,0.0,2.92969,2.6593,0.00903,0.09505,2.92969,6e-05,2.87174,7.08092,0.0,2.01416,1.76392,0.00831,0.09114,2.01416,-0.0002,4.31099,3.11971,-4.54102,0.0,-3.77271,0.09364,0.30601,4.54102,-0.00041,2.46113,14.32695,0.0,33.3374,32.51245,0.08568,0.29271,33.3374,0.00576,3.2408,1057.14502,-3.41797,0.97656,-1.16125,0.55547,0.7453,4.39453,0.14516,3.18405,1.90399
145.0,-1.01648,0.0,-1.01503,0.0,0.00058,1.01648,0.0,2.62202,1.03029,-0.00793,0.0,-0.00604,0.0,0.00051,0.00793,-0.0,2.74414,4e-05,-0.12476,0.0,-0.10836,0.0,0.00089,0.12476,-0.0,3.76073,0.01174,0.0,1.34277,1.08154,0.01178,0.10853,1.34277,-0.00029,2.78248,1.18151,0.0,2.92969,2.65747,0.00905,0.09511,2.92969,9e-05,2.87323,7.07119,0.0,2.01416,1.7627,0.00874,0.09348,2.01416,-0.00029,4.27408,3.11583,-4.54102,0.0,-3.77063,0.09443,0.30729,4.54102,-0.00075,2.42914,14.31208,0.0,33.3374,32.51282,0.08557,0.29253,33.3374,0.00569,3.24711,1057.1687,-3.41797,0.97656,-1.15649,0.54774,0.74009,4.39453,0.14699,3.22838,1.88521
146.0,-1.01648,0.0,-1.01503,0.0,0.00058,1.01648,0.0,2.60124,1.03029,-0.00793,0.0,-0.00603,0.0,0.0005,0.00793,-0.0,2.75439,4e-05,-0.12476,0.0,-0.10837,0.0,0.00089,0.12476,-0.0,3.79981,0.01174,0.0,1.34277,1.08154,0.01178,0.10853,1.34277,-0.00029,2.78248,1.18151,0.0,2.92969,2.65503,0.0089,0.09436,2.92969,0.00012,2.92231,7.05808,0.0,2.01416,1.76086,0.00837,0.0915,2.01416,-0.00031,4.43315,3.10901,-4.54102,0.0,-3.77124,0.09403,0.30665,4.54102,-0.00077,2.43997,14.31629,0.0,33.3374,32.50085,0.08176,0.28594,33.3374,0.0035,3.15314,1056.38721,-3.41797,0.97656,-1.16699,0.5664,0.7526,4.39453,0.13675,3.1617,1.92827
147.0,-1.01648,0.0,-1.01503,0.0,0.00058,1.01648,0.0,2.6025,1.03029,-0.00793,0.0,-0.00604,0.0,0.00051,0.00793,-0.0,2.74414,4e-05,-0.12476,0.0,-0.10838,0.0,0.00088,0.12476,-0.0,3.78539,0.01175,0.0,1.34277,1.08215,0.01184,0.10879,1.34277,-0.0003,2.76316,1.18289,0.0,2.92969,2.65442,0.00883,0.09396,2.92969,0.00012,2.96684,7.05477,0.0,2.01416,1.76025,0.00817,0.09041,2.01416,-0.00034,4.47744,3.10667,-4.54102,0.0,-3.77466,0.09328,0.30541,4.54102,-4e-05,2.47191,14.34132,0.0,33.3374,32.50525,0.08212,0.28657,33.3374,0.00265,3.12291,1056.67334,-3.41797,0.97656,-1.16345,0.56519,0.75179,4.39453,0.13116,3.1689,1.91881
148.0,-1.01648,0.0,-1.01504,0.0,0.00058,1.01648,0.0,2.65351,1.03031,-0.00793,0.0,-0.00602,0.0,0.00052,0.00793,-0.0,2.89832,4e-05,-0.12476,0.0,-0.10838,0.0,0.00088,0.12476,-0.0,3.79778,0.01175,0.0,1.34277,1.08459,0.01161,0.10776,1.34277,-0.00034,2.83748,1.18796,0.0,2.92969,2.65503,0.00875,0.09357,2.92969,0.00012,3.00453,7.05793,0.0,2.01416,1.76208,0.00832,0.09121,2.01416,-0.00036,4.40227,3.11326,-4.54102,0.0,-3.77271,0.09376,0.3062,4.54102,-0.00048,2.44944,14.32707,0.0,33.3374,32.50403,0.08116,0.28489,33.3374,0.00238,3.15292,1056.59302,-3.41797,0.97656,-1.1814,0.5632,0.75046,4.39453,0.14692,3.21266,1.95889
149.0,-1.01648,0.0,-1.01505,0.0,0.00058,1.01648,0.0,2.63544,1.03033,-0.00793,0.0,-0.00604,0.0,0.00052,0.00793,-0.0,2.8857,4e-05,-0.12476,0.0,-0.10838,0.0,0.00088,0.12476,-0.0,3.84204,0.01175,0.0,1.34277,1.08459,0.01161,0.10776,1.34277,-0.00034,2.83748,1.18796,0.0,2.92969,2.6532,0.00897,0.09473,2.92969,0.00013,2.93566,7.04843,0.0,2.01416,1.76025,0.00862,0.09285,2.01416,-0.00037,4.18633,3.10712,-4.54102,0.0,-3.76758,0.09324,0.30535,4.54102,-0.00154,2.47103,14.28789,0.0,33.3374,32.50513,0.08137,0.28525,33.3374,0.00215,3.13613,1056.66467,-3.41797,0.97656,-1.17163,0.56472,0.75148,4.39453,0.13291,3.18058,1.93744
150.0,-1.01648,0.0,-1.01505,0.0,0.00058,1.01648,0.0,2.58792,1.03032,-0.00793,0.0,-0.00605,0.0,0.00052,0.00793,-0.0,2.93632,4e-05,-0.12476,0.0,-0.10838,0.0,0.00088,0.12476,-0.0,3.82936,0.01175,0.0,1.34277,1.08337,0.01202,0.10965,1.34277,-0.0004,2.81682,1.18572,0.0,2.92969,2.6532,0.00897,0.09473,2.92969,0.00013,2.93566,7.04843,0.0,2.01416,1.76086,0.00867,0.09312,2.01416,-0.00038,4.15483,3.10931,-4.54102,0.0,-3.76978,0.09277,0.30459,4.54102,-0.00103,2.49218,14.30398,0.0,33.3374,32.50659,0.08184,0.28608,33.3374,0.00191,3.10284,1056.76038,-3.41797,0.97656,-1.16406,0.56669,0.75279,4.39453,0.12153,3.14846,1.92173
151.0,-1.01648,0.0,-1.01504,0.0,0.00058,1.01648,0.0,2.60725,1.0303,-0.00793,0.0,-0.00605,0.0,0.00052,0.00793,-0.0,2.86645,4e-05,-0.12476,0.0,-0.1084,0.0,0.00086,0.12476,-0.0,3.91864,0.01175,0.0,1.34277,1.08093,0.01254,0.11198,1.34277,-0.00043,2.73483,1.18095,0.0,2.92969,2.6532,0.00897,0.09473,2.92969,0.00013,2.93566,7.04843,0.0,2.01416,1.76086,0.00867,0.09312,2.01416,-0.00038,4.15483,3.10931,-4.54102,0.0,-3.76648,0.09496,0.30816,4.54102,-0.00078,2.4466,14.28133,0.0,33.3374,32.49841,0.08246,0.28716,33.3374,0.00252,3.09776,1056.22937,-3.41797,0.97656,-1.15063,0.54171,0.73601,4.39453,0.1401,3.19758,1.86567
152.0,-1.01648,0.0,-1.01505,0.0,0.00059,1.01648,0.0,2.57343,1.03032,-0.00793,0.0,-0.00605,0.0,0.00052,0.00793,-0.0,2.85176,4e-05,-0.12476,0.0,-0.10841,0.0,0.00086,0.12476,-0.0,3.85342,0.01175,0.0,1.34277,1.08215,0.01288,0.11348,1.34277,-0.0004,2.69931,1.18393,0.0,2.92969,2.65381,0.00913,0.09553,2.92969,0.00014,2.89414,7.05182,0.0,2.01416,1.76086,0.00867,0.09312,2.01416,-0.00038,4.15483,3.10931,-4.54102,0.0,-3.76782,0.09424,0.30698,4.54102,-0.00069,2.47131,14.29072,0.0,33.3374,32.49963,0.08272,0.28761,33.3374,0.00226,3.07784,1056.30896,-3.41797,0.97656,-1.15259,0.54446,0.73788,4.39453,0.14036,3.17843,1.87292
153.0,-1.01648,0.0,-1.01505,0.0,0.00058,1.01648,0.0,2.59095,1.03032,-0.00793,0.0,-0.00606,0.0,0.00052,0.00793,-0.0,2.89235,4e-05,-0.12476,0.0,-0.10842,0.0,0.00085,0.12476,-0.0,3.95395,0.01176,0.0,1.34277,1.08337,0.01277,0.113,1.34277,-0.00044,2.75092,1.18647,0.0,2.92969,2.65198,0.00934,0.09665,2.92969,0.00016,2.83316,7.04232,0.0,2.01416,1.76331,0.00752,0.0867,2.01416,0.0,2.67465,3.11676,-4.54102,0.0,-3.7688,0.09389,0.30641,4.54102,-0.00051,2.48678,14.29773,0.0,33.3374,32.505,0.08474,0.2911,33.3374,0.00187,2.9871,1056.66028,-3.41797,0.97656,-1.14526,0.54144,0.73583,4.39453,0.13035,3.19681,1.85307
154.0,-1.01697,0.0,-1.01506,0.0,0.00061,1.01697,0.0,3.10001,1.03035,-0.00793,0.0,-0.00606,0.0,0.00052,0.00793,-0.0,2.9088,4e-05,-0.12476,0.0,-0.10845,0.0,0.00082,0.12476,-0.0,3.81916,0.01176,0.0,1.34277,1.08215,0.01258,0.11216,1.34277,-0.00042,2.79759,1.18364,0.0,2.92969,2.65381,0.00935,0.09669,2.92969,0.00012,2.81821,7.05205,0.0,2.01416,1.76392,0.00741,0.0861,2.01416,0.0,2.71905,3.11881,-4.54102,0.0,-3.77124,0.09324,0.30535,4.54102,1e-05,2.51626,14.31549,0.0,33.3374,32.50452,0.08455,0.29077,33.3374,0.00194,2.99914,1056.6283,-3.41797,0.97656,-1.1405,0.54099,0.73552,4.39453,0.12292,3.19371,1.84174
155.0,-1.01697,0.0,-1.01506,0.0,0.00061,1.01697,0.0,3.07124,1.03035,-0.00793,0.0,-0.00605,0.0,0.00052,0.00793,-0.0,2.85233,4e-05,-0.12476,0.0,-0.10846,0.0,0.00082,0.12476,-0.0,3.85529,0.01176,0.0,1.34277,1.08276,0.01256,0.11209,1.34277,-0.00044,2.81176,1.18494,0.0,2.92969,2.65381,0.00935,0.09669,2.92969,0.00012,2.81821,7.05205,0.0,2.01416,1.76392,0.00741,0.0861,2.01416,0.0,2.71905,3.11881,-4.54102,0.0,-3.76904,0.09334,0.30551,4.54102,-0.00058,2.51149,14.29903,0.0,33.3374,32.5094,0.08693,0.29484,33.3374,0.00185,2.90719,1056.94824,-3.41797,0.97656,-1.14636,0.55148,0.74262,4.39453,0.11793,3.14384,1.86563
156.0,-1.01697,0.0,-1.01506,0.0,0.00062,1.01697,0.0,3.04902,1.03036,-0.00793,0.0,-0.00606,0.0,0.00052,0.00793,-0.0,2.86434,4e-05,-0.12476,0.0,-0.10846,0.0,0.00082,0.12476,-0.0,3.8435,0.01176,0.0,1.34277,1.08154,0.01267,0.11257,1.34277,-0.0004,2.75859,1.18241,0.0,2.92969,2.65381,0.00935,0.09669,2.92969,0.00012,2.81821,7.05205,0.0,2.01416,1.76636,0.00774,0.08795,2.01416,2e-05,2.70278,3.12775,-4.54102,0.0,-3.76917,0.09324,0.30535,4.54102,-0.00061,2.51284,14.29984,0.0,33.3374,32.51025,0.08702,0.295,33.3374,0.00164,2.90053,1057.00378,-3.41797,0.97656,-1.13489,0.53452,0.73111,4.39453,0.12183,3.22334,1.82249
157.0,-1.01697,0.0,-1.01505,0.0,0.00062,1.01697,0.0,3.01617,1.03032,-0.00793,0.0,-0.00608,0.0,0.00053,0.00793,-0.0,2.82661,4e-05,-0.12476,0.0,-0.10847,0.0,0.00082,0.12476,-0.0,3.78183,0.01177,0.0,1.34277,1.08093,0.01276,0.11297,1.34277,-0.00039,2.72078,1.18118,0.0,2.92969,2.65442,0.00935,0.0967,2.92969,0.00011,2.81439,7.05529,0.0,2.01416,1.76697,0.00763,0.08734,2.01416,2e-05,2.74667,3.1298,-4.54102,0.0,-3.76074,0.0961,0.31,4.54102,-0.00078,2.49573,14.23928,0.0,33.3374,32.51221,0.08844,0.29739,33.3374,0.00191,2.85763,1057.13232,-3.41797,0.97656,-1.12683,0.52992,0.72796,4.39453,0.11224,3.25808,1.79967
158.0,-1.01697,0.0,-1.01503,0.0,0.00064,1.01697,0.0,3.13185,1.03029,-0.00793,0.0,-0.00608,0.0,0.00053,0.00793,-0.0,2.75139,4e-05,-0.12476,0.0,-0.10848,0.0,0.00082,0.12476,-0.0,3.83169,0.01177,0.0,1.34277,1.07971,0.01287,0.11343,1.34277,-0.00036,2.67279,1.17864,0.0,2.92969,2.65259,0.00979,0.09895,2.92969,6e-05,2.78373,7.04601,0.0,2.01416,1.76514,0.0075,0.08661,2.01416,4e-05,2.80054,3.12321,-4.54102,0.0,-3.75513,0.09827,0.31348,4.54102,-0.00134,2.44135,14.19925,0.0,33.3374,32.52185,0.09119,0.30198,33.3374,0.00214,2.84569,1057.76221,-3.41797,0.97656,-1.12097,0.52393,0.72383,4.39453,0.10809,3.3085,1.7805
159.0,-1.01697,0.0,-1.01504,0.0,0.00065,1.01697,0.0,3.12666,1.0303,-0.00793,0.0,-0.00608,0.0,0.00053,0.00793,-0.0,2.82752,4e-05,-0.12476,0.0,-0.1085,0.0,0.00081,0.12476,-0.0,3.82726,0.01177,0.0,1.34277,1.07788,0.01291,0.1136,1.34277,-0.0003,2.64613,1.17473,0.0,2.92969,2.65259,0.00979,0.09895,2.92969,6e-05,2.78373,7.04601,0.0,2.01416,1.76453,0.00746,0.08636,2.01416,5e-05,2.83179,3.12101,-4.54102,0.0,-3.75903,0.09887,0.31443,4.54102,-0.0004,2.41608,14.2292,0.0,33.56934,32.53735,0.0994,0.31527,33.56934,0.01028,3.47013,1058.77893,-3.41797,0.97656,-1.11279,0.52432,0.7241,4.39453,0.09661,3.29178,1.76263
160.0,-1.01697,0.0,-1.01502,0.0,0.00066,1.01697,0.0,3.05899,1.03026,-0.00793,0.0,-0.00608,0.0,0.00053,0.00793,-0.0,2.80238,4e-05,-0.12476,0.0,-0.10851,0.0,0.00082,0.12476,-0.0,3.72714,0.01178,0.0,1.34277,1.07727,0.01284,0.11333,1.34277,-0.00028,2.66507,1.17335,0.0,2.92969,2.6532,0.00972,0.09859,2.92969,5e-05,2.81689,7.04918,0.0,2.01416,1.76331,0.00714,0.08453,2.01416,1e-05,2.84098,3.11639,-4.54102,0.0,-3.7572,0.10071,0.31736,4.54102,0.00046,2.42416,14.21729,0.0,33.56934,32.53687,0.09916,0.3149,33.56934,0.01034,3.48579,1058.74683,-3.41797,0.97656,-1.11658,0.53349,0.7304,4.39453,0.08584,3.28122,1.78023
161.0,-1.01697,0.0,-1.01503,0.0,0.00064,1.01697,0.0,3.11837,1.0303,-0.00793,0.0,-0.00606,0.0,0.00051,0.00793,0.0,2.54409,4e-05,-0.12476,0.0,-0.10852,0.0,0.00082,0.12476,-0.0,3.72449,0.01178,0.0,1.34277,1.07788,0.01291,0.1136,1.34277,-0.0003,2.64613,1.17473,0.0,2.92969,2.65259,0.00987,0.09933,2.92969,4e-05,2.78116,7.04609,0.0,2.01416,1.7627,0.0071,0.08426,2.01416,2e-05,2.87424,3.11419,-4.54102,0.0,-3.75513,0.09961,0.31561,4.54102,0.0003,2.45974,14.20059,0.0,33.56934,32.54053,0.09992,0.3161,33.56934,0.00949,3.42551,1058.98596,-3.41797,0.97656,-1.12012,0.52933,0.72755,4.39453,0.0877,3.3262,1.78399
162.0,-1.01697,0.0,-1.01504,0.0,0.00063,1.01697,0.0,3.20959,1.03031,-0.00793,0.0,-0.00606,0.0,0.0005,0.00793,0.0,2.58065,4e-05,-0.12476,0.0,-0.10853,0.0,0.00082,0.12476,-0.0,3.73663,0.01178,0.0,1.34277,1.07788,0.01291,0.1136,1.34277,-0.0003,2.64613,1.17473,0.0,2.92969,2.65076,0.00985,0.09927,2.92969,8e-05,2.79067,7.03636,0.0,2.01416,1.76147,0.00723,0.08502,2.01416,3e-05,2.80694,3.11002,-4.54102,0.0,-3.75293,0.09723,0.31181,4.54102,0.00162,2.4262,14.18171,0.0,33.56934,32.53894,0.09981,0.31592,33.56934,0.00995,3.4391,1058.88257,-3.41797,0.97656,-1.12659,0.52545,0.72488,4.39453,0.09552,3.37856,1.79465
163.0,-1.01697,0.0,-1.01504,0.0,0.00064,1.01697,0.0,3.17233,1.0303,-0.00793,0.0,-0.00607,0.0,0.00051,0.00793,0.0,2.52133,4e-05,-0.12476,0.0,-0.10853,0.0,0.00081,0.12476,-0.0,3.74971,0.01178,0.0,1.34277,1.07483,0.01296,0.11383,1.34277,-0.00026,2.61937,1.16821,0.0,2.92969,2.65137,0.00986,0.09929,2.92969,6e-05,2.78619,7.0396,0.0,2.01416,1.76208,0.00713,0.08442,2.01416,3e-05,2.85459,3.11207,-4.54102,0.0,-3.75317,0.09717,0.31173,4.54102,0.00169,2.42877,14.18349,0.0,33.56934,32.5415,0.09848,0.31382,33.56934,0.00974,3.49916,1059.0481,-3.41797,0.97656,-1.1521,0.55857,0.74738,4.39453,0.06326,3.45053,1.8859
164.0,-1.01697,0.0,-1.01503,0.0,0.00064,1.01697,0.0,3.14387,1.03028,-0.00793,0.0,-0.00607,0.0,0.00051,0.00793,0.0,2.52505,4e-05,-0.12476,0.0,-0.10853,0.0,0.00081,0.12476,-0.0,3.76793,0.01178,0.0,1.34277,1.07544,0.01302,0.11411,1.34277,-0.00027,2.59971,1.16959,0.0,2.92969,2.65015,0.00977,0.09886,2.92969,9e-05,2.83001,7.03305,0.0,2.01416,1.76208,0.00713,0.08442,2.01416,3e-05,2.85459,3.11207,-4.54102,0.0,-3.75574,0.09617,0.31011,4.54102,0.00209,2.46999,14.20173,0.0,33.56934,32.54456,0.09748,0.31222,33.56934,0.00916,3.54864,1059.24573,-3.41797,0.97656,-1.16064,0.56614,0.75242,4.39453,0.07109,3.38395,1.91323
165.0,-1.01697,0.0,-1.01502,0.0,0.00064,1.01697,0.0,3.12111,1.03026,-0.00793,0.0,-0.00606,0.0,0.0005,0.00793,0.0,2.56443,4e-05,-0.12476,0.0,-0.10854,0.0,0.00081,0.12476,-0.0,3.76443,0.01178,0.0,1.34277,1.073,0.0129,0.11359,1.34277,-0.00022,2.61136,1.16423,0.0,2.92969,2.65076,0.0097,0.09851,2.92969,8e-05,2.86212,7.03621,0.0,2.01416,1.76331,0.00714,0.08453,2.01416,1e-05,2.84098,3.11639,-4.54102,0.0,-3.75244,0.09649,0.31063,4.54102,0.00125,2.45309,14.17731,0.0,33.56934,32.5531,0.0926,0.3043,33.56934,0.01038,3.59303,1059.797,-3.41797,0.97656,-1.16333,0.57242,0.75658,4.39453,0.06461,3.36545,1.92575
166.0,-1.01697,0.0,-1.01501,0.0,0.00064,1.01697,0.0,3.10276,1.03026,-0.00793,0.0,-0.00608,0.0,0.00052,0.00793,0.0,2.62589,4e-05,-0.12476,0.0,-0.10855,0.0,0.00082,0.12476,-0.0,3.67521,0.01178,0.0,1.34277,1.07361,0.0129,0.11356,1.34277,-0.00024,2.61723,1.16553,0.0,2.92969,2.65015,0.00962,0.09811,2.92969,9e-05,2.90311,7.0329,0.0,2.01416,1.76208,0.00713,0.08442,2.01416,3e-05,2.85459,3.11207,-4.54102,0.0,-3.7561,0.09904,0.3147,4.54102,0.00088,2.41023,14.20735,0.0,33.56934,32.55115,0.09244,0.30404,33.56934,0.01089,3.61469,1059.66968,-3.41797,0.97656,-1.17419,0.58058,0.76195,4.39453,0.0756,3.30168,1.95931
167.0,-1.01697,0.0,-1.01502,0.0,0.00064,1.01697,0.0,3.08568,1.03026,-0.00793,0.0,-0.00608,0.0,0.00052,0.00793,0.0,2.61686,4e-05,-0.12476,0.0,-0.10856,0.0,0.00081,0.12476,-0.0,3.73144,0.01179,0.0,1.34277,1.07361,0.0129,0.11356,1.34277,-0.00024,2.61723,1.16553,0.0,2.92969,2.65259,0.00949,0.09743,2.92969,6e-05,2.93033,7.04571,0.0,2.01416,1.76453,0.00776,0.08807,2.01416,0.00013,3.05521,3.12131,-4.54102,0.0,-3.75684,0.09944,0.31533,4.54102,0.00094,2.3973,14.21325,0.0,33.56934,32.54736,0.09244,0.30403,33.56934,0.01181,3.63522,1059.42334,-3.41797,0.97656,-1.1908,0.55671,0.74613,4.39453,0.06676,3.42043,1.97471
168.0,-1.01697,0.0,-1.015,0.0,0.00064,1.01697,0.0,3.09692,1.03024,-0.00793,0.0,-0.00608,0.0,0.00052,0.00793,0.0,2.65164,4e-05,-0.12476,0.0,-0.10857,0.0,0.00081,0.12476,-0.0,3.67691,0.01179,0.0,1.34277,1.07483,0.01311,0.11448,1.34277,-0.00026,2.56846,1.16836,0.0,2.92969,2.65015,0.00992,0.09961,2.92969,4e-05,2.88445,7.0332,0.0,2.01416,1.76514,0.0078,0.08831,2.01416,0.00012,3.01913,3.12351,-4.54102,0.0,-3.7594,0.09954,0.3155,4.54102,0.00166,2.39406,14.23262,0.0,33.56934,32.54199,0.09389,0.30641,33.56934,0.01263,3.58327,1059.0752,-3.41797,0.97656,-1.18408,0.55897,0.74764,4.39453,0.05685,3.38958,1.96102
169.0,-1.01697,0.0,-1.01502,0.0,0.00064,1.01697,0.0,3.08568,1.03026,-0.00793,0.0,-0.00607,0.0,0.00052,0.00793,-0.0,2.64171,4e-05,-0.12476,0.0,-0.10858,0.0,0.00081,0.12476,-0.0,3.68053,0.01179,0.0,1.34277,1.07666,0.01308,0.11436,1.34277,-0.00031,2.58894,1.17227,0.0,2.92969,2.64893,0.01013,0.10066,2.92969,4e-05,2.81358,7.02694,0.0,2.01416,1.76453,0.00776,0.08807,2.01416,0.00013,3.05521,3.12131,-4.54102,0.0,-3.76416,0.10027,0.31666,4.54102,0.00273,2.37235,14.26918,0.0,33.56934,32.53674,0.09723,0.31182,33.56934,0.01217,3.48909,1058.73694,-3.41797,0.97656,-1.18408,0.55897,0.74764,4.39453,0.05685,3.38958,1.96102
170.0,-1.01697,0.0,-1.01501,0.0,0.00065,1.01697,0.0,3.01516,1.03025,-0.00793,0.0,-0.00607,0.0,0.00052,0.00793,0.0,2.63736,4e-05,-0.12476,0.0,-0.10859,0.0,0.0008,0.12476,-0.0,3.70528,0.01179,0.0,1.34277,1.07727,0.01292,0.11365,1.34277,-0.00031,2.62333,1.17343,0.0,2.92969,2.65076,0.01015,0.10076,2.92969,0.0,2.80449,7.03666,0.0,2.01416,1.76514,0.00772,0.08789,2.01416,0.00012,3.07282,3.12343,-4.54102,0.0,-3.76831,0.10032,0.31674,4.54102,0.0038,2.37589,14.30049,0.0,33.56934,32.53528,0.09678,0.3111,33.56934,0.01248,3.52667,1058.64111,-3.41797,0.97656,-1.19006,0.56149,0.74933,4.39453,0.06557,3.36601,1.97774
171.0,-1.01697,0.0,-1.015,0.0,0.00064,1.01697,0.0,3.085,1.03024,-0.00793,0.0,-0.00606,0.0,0.00052,0.00793,-0.0,2.63197,4e-05,-0.12476,0.0,-0.10862,0.0,0.00082,0.12476,-0.0,3.6404,0.0118,0.0,1.34277,1.07849,0.01297,0.11388,1.34277,-0.00035,2.61486,1.17611,0.0,2.92969,2.65198,0.00979,0.09894,2.92969,5e-05,2.81868,7.04277,0.0,2.01416,1.76575,0.00777,0.08813,2.01416,0.00011,3.03737,3.12563,-4.54102,0.0,-3.76672,0.10017,0.3165,4.54102,0.00334,2.38048,14.28838,0.0,33.56934,32.53174,0.09736,0.31202,33.56934,0.01333,3.50906,1058.41138,-3.41797,0.97656,-1.20325,0.56309,0.75039,4.39453,0.08194,3.3636,2.0109
172.0,-1.01697,0.0,-1.01501,0.0,0.00066,1.01697,-0.0,3.21274,1.03025,-0.00793,0.0,-0.00608,0.0,0.00053,0.00793,-0.0,2.66482,4e-05,-0.12476,0.0,-0.10863,0.0,0.00084,0.12476,-0.0,3.51368,0.0118,0.0,1.34277,1.07666,0.01256,0.11205,1.34277,-0.00036,2.66277,1.17175,0.0,2.92969,2.65198,0.00979,0.09894,2.92969,5e-05,2.81868,7.04277,0.0,2.01416,1.76514,0.0078,0.08831,2.01416,0.00012,3.01913,3.12351,-4.54102,0.0,-3.76208,0.09716,0.3117,4.54102,0.00369,2.4218,14.25044,0.0,33.56934,32.53149,0.09749,0.31224,33.56934,0.01334,3.50285,1058.39575,-3.41797,0.97656,-1.19775,0.56133,0.74922,4.39453,0.07351,3.37822,1.99594
173.0,-1.01697,0.0,-1.01503,0.0,0.00065,1.01697,-0.0,3.24896,1.03029,-0.00793,0.0,-0.00607,0.0,0.00053,0.00793,-0.0,2.64892,4e-05,-0.12476,0.0,-0.10863,0.0,0.00084,0.12476,-0.0,3.52511,0.0118,0.0,1.34277,1.07483,0.01214,0.11017,1.34277,-0.00038,2.70914,1.16739,0.0,2.92969,2.65076,0.00985,0.09927,2.92969,8e-05,2.79067,7.03636,0.0,2.01416,1.7627,0.00807,0.08982,2.01416,0.00012,2.98786,3.11516,-4.54102,0.0,-3.76282,0.0974,0.3121,4.54102,0.00384,2.41226,14.2562,0.0,33.56934,32.53027,0.09844,0.31376,33.56934,0.01314,3.4727,1058.31726,-3.41797,0.97656,-1.20764,0.56374,0.75082,4.39453,0.08734,3.36336,2.02213
174.0,-1.01697,0.0,-1.01503,0.0,0.00065,1.01697,-0.0,3.24896,1.03029,-0.00793,0.0,-0.00609,0.0,0.00053,0.00793,-0.0,2.69436,4e-05,-0.12476,0.0,-0.10862,0.0,0.00085,0.12476,-0.0,3.44736,0.0118,0.0,1.34277,1.07544,0.01213,0.11013,1.34277,-0.0004,2.71938,1.1687,0.0,2.92969,2.65259,0.01009,0.10045,2.92969,6e-05,2.71451,7.04631,0.0,2.01416,1.7627,0.00807,0.08982,2.01416,0.00012,2.98786,3.11516,-4.54102,0.0,-3.7688,0.0996,0.31559,4.54102,0.00447,2.37163,14.30344,0.0,33.56934,32.53418,0.09825,0.31345,33.56934,0.01215,3.46444,1058.57129,-3.41797,0.97656,-1.22668,0.58386,0.76411,4.39453,0.08691,3.29494,2.08862
175.0,-1.01697,0.0,-1.01503,0.0,0.00065,1.01697,-0.0,3.26565,1.03029,-0.00793,0.0,-0.0061,0.0,0.00053,0.00793,-0.0,2.66471,4e-05,-0.12476,0.0,-0.10862,0.0,0.00085,0.12476,-0.0,3.45746,0.0118,0.0,1.34277,1.0791,0.01228,0.11084,1.34277,-0.00041,2.76044,1.17674,0.0,2.92969,2.65259,0.01009,0.10045,2.92969,6e-05,2.71451,7.04631,0.0,2.01416,1.76208,0.00802,0.08956,2.01416,0.00013,3.02409,3.11296,-4.54102,0.0,-3.77222,0.09977,0.31587,4.54102,0.00538,2.37105,14.32939,0.0,33.56934,32.54089,0.09727,0.31188,33.56934,0.01104,3.47721,1059.00708,-3.41797,0.97656,-1.22705,0.58386,0.76411,4.39453,0.08755,3.29532,2.08952
176.0,-1.01697,0.0,-1.01503,0.0,0.00065,1.01697,-0.0,3.24158,1.03029,-0.00793,0.0,-0.00609,0.0,0.00053,0.00793,-0.0,2.6717,4e-05,-0.12476,0.0,-0.10861,0.0,0.00085,0.12476,-0.0,3.42259,0.0118,0.0,1.34277,1.07971,0.01227,0.11077,1.34277,-0.00043,2.77328,1.17805,0.0,2.92969,2.6532,0.01017,0.10083,2.92969,5e-05,2.67943,7.04963,0.0,2.01416,1.7627,0.00792,0.08899,2.01416,0.00013,3.07157,3.11501,-4.54102,0.0,-3.76819,0.09981,0.31592,4.54102,0.00434,2.36181,14.29905,0.0,33.56934,32.53906,0.09679,0.3111,33.56934,0.01146,3.51821,1058.88745,-3.41797,0.97656,-1.21094,0.57319,0.75709,4.39453,0.07535,3.35394,2.03956
177.0,-1.01697,0.0,-1.01503,0.0,0.00065,1.01697,-0.0,3.24158,1.03029,-0.00793,0.0,-0.00609,0.0,0.00053,0.00793,-0.0,2.65348,4e-05,-0.12476,0.0,-0.10861,0.0,0.00085,0.12476,-0.0,3.41136,0.0118,0.0,1.34277,1.08093,0.01217,0.1103,1.34277,-0.00046,2.82799,1.18058,0.0,2.92969,2.65686,0.01084,0.1041,2.92969,0.00015,2.8236,7.06974,0.0,2.01416,1.76086,0.00778,0.08818,2.01416,0.00015,3.15568,3.10842,-4.54102,0.0,-3.76685,0.09984,0.31598,4.54102,0.00395,2.35786,14.28897,0.0,33.56934,32.53992,0.09687,0.31123,33.56934,0.01122,3.50828,1058.94324,-3.41797,0.97656,-1.21143,0.57312,0.75705,4.39453,0.07618,3.35511,2.04068
178.0,-1.01697,0.0,-1.01504,0.0,0.00065,1.01697,-0.0,3.26684,1.0303,-0.00793,0.0,-0.00609,0.0,0.00053,0.00793,-0.0,2.6705,4e-05,-0.12476,0.0,-0.10861,0.0,0.00085,0.12476,-0.0,3.40551,0.0118,0.0,1.34277,1.08154,0.01208,0.10989,1.34277,-0.00048,2.87044,1.18181,0.0,2.92969,2.65625,0.01099,0.10482,2.92969,0.00015,2.79012,7.06665,0.0,2.01416,1.75964,0.00745,0.08634,2.01416,0.00011,3.20126,3.1038,-4.54102,0.0,-3.76855,0.09994,0.31614,4.54102,0.00444,2.35627,14.30195,0.0,33.56934,32.54968,0.09566,0.30929,33.56934,0.01084,3.48643,1059.57764,-3.41797,0.97656,-1.21338,0.57492,0.75823,4.39453,0.07829,3.3384,2.04721
179.0,-1.01697,0.0,-1.01506,0.0,0.00064,1.01697,-0.0,3.27421,1.03034,-0.00793,0.0,-0.00608,0.0,0.00053,0.00793,-0.0,2.72853,4e-05,-0.12476,0.0,-0.10861,0.0,0.00085,0.12476,-0.0,3.39613,0.0118,0.0,1.34277,1.08337,0.01247,0.11167,1.34277,-0.00046,2.81526,1.18617,0.0,2.92969,2.65747,0.01121,0.10586,2.92969,0.00014,2.71767,7.07336,0.0,2.01416,1.76086,0.00733,0.08561,2.01416,0.0001,3.27227,3.10797,-4.54102,0.0,-3.76978,0.10025,0.31662,4.54102,0.00475,2.34536,14.31146,0.0,33.56934,32.54944,0.09582,0.30954,33.56934,0.01084,3.4797,1059.56201,-3.41797,0.97656,-1.22046,0.57618,0.75907,4.39453,0.08946,3.33195,2.0657
180.0,-1.01697,0.0,-1.01506,0.0,0.00064,1.01697,-0.0,3.24899,1.03035,-0.00793,0.0,-0.00607,0.0,0.00052,0.00793,-0.0,2.76232,4e-05,-0.12476,0.0,-0.10863,0.0,0.00083,0.12476,-0.0,3.47221,0.0118,0.0,1.34277,1.08215,0.01213,0.11015,1.34277,-0.00049,2.85372,1.18319,0.0,2.92969,2.65869,0.01127,0.10618,2.92969,0.0001,2.68549,7.07991,0.0,2.01416,1.76025,0.00728,0.08533,2.01416,0.00011,3.31645,3.10577,-4.54102,0.0,-3.77466,0.10191,0.31924,4.54102,0.00551,2.30739,14.34996,0.0,33.56934,32.55676,0.0964,0.31048,33.56934,0.00974,3.4224,1060.03943,-3.41797,0.97656,-1.22388,0.57259,0.75669,4.39453,0.0924,3.37102,2.07046
181.0,-1.01697,0.0,-1.01507,0.0,0.00065,1.01697,0.0,3.16009,1.03037,-0.00793,0.0,-0.00607,0.0,0.00053,0.00793,-0.0,2.71263,4e-05,-0.12476,0.0,-0.10864,0.0,0.00083,0.12476,-0.0,3.53101,0.0118,0.0,1.34277,1.08398,0.01208,0.1099,1.34277,-0.00054,2.89924,1.1871,0.0,2.92969,2.6593,0.01127,0.10616,2.92969,8e-05,2.68592,7.08315,0.0,2.01416,1.76086,0.00733,0.08561,2.01416,0.0001,3.27227,3.10797,-4.54102,0.0,-3.77124,0.10059,0.31715,4.54102,0.00496,2.34408,14.32284,0.0,33.56934,32.56006,0.09586,0.30961,33.56934,0.00895,3.44357,1060.25354,-3.41797,0.97656,-1.23315,0.56383,0.75089,4.39453,0.10003,3.46363,2.0845
182.0,-1.01697,0.0,-1.01506,0.0,0.00064,1.01697,-0.0,3.2221,1.03035,-0.00793,0.0,-0.00606,0.0,0.00053,0.00793,-0.0,2.75662,4e-05,-0.12476,0.0,-0.10865,0.0,0.00082,0.12476,-0.0,3.59704,0.0118,0.0,1.34277,1.08398,0.01208,0.1099,1.34277,-0.00054,2.89924,1.1871,0.0,2.92969,2.65869,0.01127,0.10618,2.92969,0.0001,2.68549,7.07991,0.0,2.01416,1.76147,0.0073,0.08546,2.01416,9e-05,3.29033,3.1101,-4.54102,0.0,-3.76746,0.09987,0.31603,4.54102,0.00406,2.36444,14.2936,0.0,33.56934,32.56006,0.09586,0.30961,33.56934,0.00895,3.44357,1060.25342,-3.41797,0.97656,-1.24402,0.55297,0.74362,4.39453,0.10688,3.57705,2.10055
183.0,-1.01697,0.0,-1.01507,0.0,0.00065,1.01697,-0.0,3.16106,1.03036,-0.00793,0.0,-0.00606,0.0,0.00053,0.00793,-0.0,2.76089,4e-05,-0.12476,0.0,-0.10863,0.0,0.00082,0.12476,-0.0,3.61265,0.0118,0.0,1.34277,1.08215,0.01213,0.11015,1.34277,-0.00049,2.85372,1.18319,0.0,2.92969,2.65686,0.01128,0.10623,2.92969,0.00015,2.6894,7.07019,0.0,2.01416,1.76208,0.00728,0.0853,2.01416,8e-05,3.30974,3.11222,-4.54102,0.0,-3.77283,0.10094,0.31771,4.54102,0.00513,2.34152,14.33517,0.0,33.56934,32.56018,0.09584,0.30958,33.56934,0.00891,3.44452,1060.26135,-3.41797,0.97656,-1.23938,0.5475,0.73993,4.39453,0.1043,3.62768,2.08356
184.0,-1.01697,0.0,-1.01507,0.0,0.00065,1.01697,-0.0,3.15964,1.03037,-0.00793,0.0,-0.00606,0.0,0.00053,0.00793,-0.0,2.69788,4e-05,-0.12476,0.0,-0.10864,0.0,0.00083,0.12476,-0.0,3.47211,0.0118,0.0,1.34277,1.08276,0.01204,0.10973,1.34277,-0.00051,2.89751,1.18442,0.0,2.92969,2.65808,0.0112,0.10585,2.92969,0.00012,2.71675,7.0766,0.0,2.01416,1.76392,0.00697,0.08346,2.01416,9e-05,3.39973,3.11837,-4.54102,0.0,-3.76599,0.09974,0.31581,4.54102,0.00403,2.35565,14.28243,0.0,33.56934,32.55981,0.09606,0.30994,33.56934,0.00892,3.43447,1060.23767,-3.41797,0.97656,-1.22449,0.54747,0.73991,4.39453,0.0881,3.60884,2.04684
185.0,-1.01697,0.0,-1.01507,0.0,0.00065,1.01697,-0.0,3.1637,1.03037,-0.00793,0.0,-0.00605,0.0,0.00053,0.00793,-0.0,2.69573,4e-05,-0.12476,0.0,-0.10863,0.0,0.00082,0.12476,-0.0,3.60713,0.0118,0.0,1.34277,1.08154,0.012,0.10955,1.34277,-0.00047,2.89827,1.18174,0.0,2.92969,2.6593,0.01127,0.10616,2.92969,8e-05,2.68592,7.08315,0.0,2.01416,1.76453,0.00694,0.08328,2.01416,8e-05,3.42308,3.12049,-4.54102,0.0,-3.76624,0.09988,0.31603,4.54102,0.00404,2.35176,14.28441,0.0,33.56934,32.56323,0.09694,0.31135,33.56934,0.0082,3.36846,1060.46106,-3.41797,0.97656,-1.22217,0.5444,0.73783,4.39453,0.08739,3.63758,2.03809
186.0,-1.01697,0.0,-1.01506,0.0,0.00066,1.01697,-0.0,3.06915,1.03035,-0.00793,0.0,-0.00606,0.0,0.00053,0.00793,-0.0,2.69067,4e-05,-0.12476,0.0,-0.10862,0.0,0.00082,0.12476,-0.0,3.68636,0.0118,0.0,1.34277,1.08398,0.01208,0.1099,1.34277,-0.00052,2.91019,1.1871,0.0,2.92969,2.66052,0.01148,0.10715,2.92969,7e-05,2.62095,7.08986,0.0,2.01416,1.76514,0.00698,0.08354,2.01416,7e-05,3.38062,3.12269,-4.54102,0.0,-3.76099,0.09857,0.31396,4.54102,0.00308,2.3841,14.24359,0.0,33.56934,32.55579,0.09599,0.30983,33.56934,0.00923,3.43421,1059.97522,-3.41797,0.97656,-1.22351,0.5449,0.73817,4.39453,0.08943,3.6326,2.04188
187.0,-1.01697,0.0,-1.01507,0.0,0.00066,1.01697,0.0,3.13085,1.03037,-0.00793,0.0,-0.00605,0.0,0.00053,0.00793,-0.0,2.74252,4e-05,-0.12476,0.0,-0.10864,0.0,0.00083,0.12476,-0.0,3.52723,0.0118,0.0,1.34277,1.08459,0.01221,0.11049,1.34277,-0.00052,2.87843,1.18855,0.0,2.92969,2.65991,0.01149,0.10718,2.92969,0.0001,2.61972,7.08662,0.0,2.01416,1.76392,0.00712,0.08435,2.01416,8e-05,3.29676,3.11851,-4.54102,0.0,-3.75903,0.09738,0.31206,4.54102,0.00307,2.41449,14.22772,0.0,33.56934,32.55774,0.09542,0.3089,33.56934,0.00881,3.46402,1060.10168,-3.41797,0.97656,-1.23401,0.5455,0.73858,4.39453,0.10369,3.63936,2.06828
188.0,-1.01697,0.0,-1.01508,0.0,0.00066,1.01697,0.0,3.15769,1.03039,-0.00793,0.0,-0.00605,0.0,0.00052,0.00793,-0.0,2.76076,4e-05,-0.12476,0.0,-0.10865,0.0,0.00084,0.12476,-0.0,3.42647,0.01181,0.0,1.34277,1.08398,0.01223,0.11058,1.34277,-0.0005,2.86118,1.18725,0.0,2.92969,2.65991,0.01149,0.10718,2.92969,0.0001,2.61972,7.08662,0.0,2.01416,1.76636,0.00714,0.08449,2.01416,6e-05,3.27481,3.12716,-4.54102,0.0,-3.76477,0.09813,0.31325,4.54102,0.00421,2.4,14.27163,0.0,33.56934,32.55933,0.09566,0.30929,33.56934,0.0084,3.44103,1060.2052,-3.41797,0.97656,-1.25427,0.55593,0.74561,4.39453,0.11234,3.60615,2.12913
189.0,-1.01697,0.0,-1.01508,0.0,0.00065,1.01697,0.0,3.18151,1.03038,-0.00793,0.0,-0.00605,0.0,0.00052,0.00793,-0.0,2.79684,4e-05,-0.12476,0.0,-0.10867,0.0,0.00085,0.12476,-0.0,3.27803,0.01181,0.0,1.34277,1.08154,0.01155,0.10749,1.34277,-0.00058,2.82262,1.18129,0.0,2.92969,2.6593,0.01149,0.1072,2.92969,0.00012,2.61921,7.08338,0.0,2.01416,1.76758,0.00715,0.08454,2.01416,4e-05,3.26391,3.13148,-4.54102,0.0,-3.7627,0.09619,0.31015,4.54102,0.00498,2.39809,14.25407,0.0,33.56934,32.55969,0.09567,0.30931,33.56934,0.00829,3.43891,1060.22925,-3.41797,0.97656,-1.26245,0.5596,0.74807,4.39453,0.12342,3.57634,2.15339
190.0,-1.01697,0.0,-1.01506,0.0,0.00066,1.01697,-0.0,3.12471,1.03036,-0.00793,0.0,-0.00606,0.0,0.00054,0.00793,-0.0,2.80435,4e-05,-0.12476,0.0,-0.1087,0.0,0.00089,0.12476,-0.0,3.29535,0.01182,0.0,1.34277,1.08337,0.01195,0.10931,1.34277,-0.00057,2.7794,1.18565,0.0,2.92969,2.65808,0.01173,0.10828,2.92969,0.00012,2.56384,7.07712,0.0,2.01416,1.76636,0.00714,0.08449,2.01416,6e-05,3.27481,3.12716,-4.54102,0.0,-3.75769,0.0954,0.30887,4.54102,0.00395,2.41619,14.21565,0.0,33.56934,32.55774,0.09683,0.31117,33.56934,0.00833,3.38818,1060.10315,-3.41797,0.97656,-1.25476,0.54526,0.73842,4.39453,0.13187,3.65559,2.11969
191.0,-1.01697,0.0,-1.01507,0.0,0.00065,1.01697,-0.0,3.17003,1.03036,-0.00793,0.0,-0.00606,0.0,0.00054,0.00793,-0.0,2.80069,4e-05,-0.12476,0.0,-0.10871,0.0,0.00089,0.12476,-0.0,3.22914,0.01182,0.0,1.34277,1.08337,0.01195,0.10931,1.34277,-0.00057,2.7794,1.18565,0.0,2.92969,2.65808,0.01173,0.10828,2.92969,0.00012,2.56384,7.07712,0.0,2.01416,1.76636,0.00714,0.08449,2.01416,6e-05,3.27481,3.12716,-4.54102,0.0,-3.75793,0.0956,0.30919,4.54102,0.0039,2.41373,14.21768,0.0,33.56934,32.56079,0.09886,0.31441,33.56934,0.00851,3.29556,1060.30396,-3.41797,0.97656,-1.26196,0.55307,0.74369,4.39453,0.13645,3.58735,2.14562
192.0,-1.01697,0.0,-1.01504,0.0,0.00071,1.01697,0.0,4.45813,1.03031,-0.00793,0.00378,-0.00596,0.0,0.00112,0.01172,0.0,58.22397,4e-05,-0.12476,0.0,-0.10876,0.0,0.00108,0.12476,-0.0,12.36324,0.01183,0.0,1.34277,1.08582,0.01142,0.10687,1.34277,-0.00053,2.86854,1.19042,0.0,3.11279,2.66418,0.01351,0.11625,3.11279,0.00085,4.10885,7.11139,0.0,2.01416,1.76514,0.00743,0.08618,2.01416,4e-05,3.21411,3.12313,-4.54102,0.0,-3.75806,0.09549,0.30901,4.54102,0.00386,2.41449,14.21848,0.0,33.56934,32.56165,0.09957,0.31554,33.56934,0.00871,3.27079,1060.36023,-3.41797,0.97656,-1.27307,0.56979,0.75485,4.39453,0.13285,3.48844,2.19051
193.0,-1.01697,0.0,-1.01503,0.0,0.00071,1.01697,0.0,4.46606,1.03028,-0.00793,0.00378,-0.00593,0.0,0.00115,0.01172,0.0,50.90529,4e-05,-0.12476,0.0,-0.10877,0.0,0.0011,0.12476,-0.0,11.73578,0.01183,0.0,1.34277,1.08643,0.01147,0.10712,1.34277,-0.00055,2.85461,1.19179,0.0,3.11279,2.66479,0.01358,0.11652,3.11279,0.00083,4.06214,7.11471,0.0,2.01416,1.76514,0.00743,0.08618,2.01416,4e-05,3.21411,3.12313,-4.54102,0.0,-3.75903,0.09566,0.30929,4.54102,0.00411,2.40802,14.22599,0.0,33.56934,32.55676,0.09435,0.30717,33.56934,0.00566,3.25412,1060.03711,-3.41797,0.97656,-1.26794,0.57281,0.75684,4.39453,0.12573,3.44653,2.18049
194.0,-1.01697,0.0,-1.01503,0.0,0.0007,1.01697,0.0,4.51692,1.03029,-0.00793,0.00378,-0.00595,0.0,0.00116,0.01172,0.0,50.83263,4e-05,-0.12476,0.0,-0.10876,0.0,0.00109,0.12476,-0.0,12.27111,0.01183,0.0,1.34277,1.08398,0.01171,0.1082,1.34277,-0.00052,2.76246,1.18673,0.0,3.11279,2.66357,0.01338,0.11565,3.11279,0.00085,4.18456,7.108,0.0,2.01416,1.76575,0.0074,0.08599,2.01416,2e-05,3.23849,3.12526,-4.54102,0.0,-3.7605,0.0953,0.30871,4.54102,0.00446,2.42729,14.23665,0.0,33.56934,32.55457,0.09574,0.30943,33.56934,0.0056,3.19972,1059.89539,-3.41797,0.97656,-1.26648,0.57234,0.75653,4.39453,0.12334,3.4499,2.17631
