Seq,Acc_X_Min,Acc_X_Max,Acc_X_Avg,Acc_X_Variance,Acc_X_StdDev,Acc_X_Range,Acc_X_Skew,Acc_X_Kurtosis,Acc_X_Energy,Acc_Y_Min,Acc_Y_Max,Acc_Y_Avg,Acc_Y_Variance,Acc_Y_StdDev,Acc_Y_Range,Acc_Y_Skew,Acc_Y_Kurtosis,Acc_Y_Energy,Acc_Z_Min,Acc_Z_Max,Acc_Z_Avg,Acc_Z_Variance,Acc_Z_StdDev,Acc_Z_Range,Acc_Z_Skew,Acc_Z_Kurtosis,Acc_Z_Energy,Gyro_X_Min,Gyro_X_Max,Gyro_X_Avg,Gyro_X_Variance,Gyro_X_StdDev,Gyro_X_Range,Gyro_X_Skew,Gyro_X_Kurtosis,Gyro_X_Energy,Gyro_Y_Min,Gyro_Y_Max,Gyro_Y_Avg,Gyro_Y_Variance,Gyro_Y_StdDev,Gyro_Y_Range,Gyro_Y_Skew,Gyro_Y_Kurtosis,Gyro_Y_Energy,Gyro_Z_Min,Gyro_Z_Max,Gyro_Z_Avg,Gyro_Z_Variance,Gyro_Z_StdDev,Gyro_Z_Range,Gyro_Z_Skew,Gyro_Z_Kurtosis,Gyro_Z_Energy,Mag_X_Min,Mag_X_Max,Mag_X_Avg,Mag_X_Variance,Mag_X_StdDev,Mag_X_Range,Mag_X_Skew,Mag_X_Kurtosis,Mag_X_Energy,Mag_Y_Min,Mag_Y_Max,Mag_Y_Avg,Mag_Y_Variance,Mag_Y_StdDev,Mag_Y_Range,Mag_Y_Skew,Mag_Y_Kurtosis,Mag_Y_Energy,Mag_Z_Min,Mag_Z_Max,Mag_Z_Avg,Mag_Z_Variance,Mag_Z_StdDev,Mag_Z_Range,Mag_Z_Skew,Mag_Z_Kurtosis,Mag_Z_Energy
0.0,-0.38,1.32,0.54,0.12,0.35,1.7,-0.01,2.59,0.41,-0.77,0.69,0.31,0.06,0.24,1.46,-0.02,8.73,0.15,-0.23,2.05,0.6,0.11,0.33,2.29,0.03,6.61,0.47,-164.25,200.74,3.72,2094.37,45.76,364.99,25884.22,8.33,2108.22,-223.33,86.91,-1.54,1707.85,41.33,310.24,-125081.64,10.69,1710.23,-140.62,136.72,-0.74,1953.83,44.2,277.34,-13524.25,4.17,1954.38,-31.67,36.5,-2.9,192.72,13.88,68.16,2662.15,3.99,201.11,0.0,84.07,49.76,406.32,20.16,84.07,-863.8,1.73,2882.8,-19.01,47.97,-4.79,125.58,11.21,66.98,3818.36,13.11,148.55
1.0,-0.38,1.34,0.54,0.13,0.36,1.72,-0.01,2.61,0.42,-0.77,0.69,0.31,0.06,0.24,1.46,-0.02,8.73,0.15,-0.23,2.05,0.59,0.12,0.34,2.29,0.03,6.28,0.47,-164.25,200.74,3.36,2109.21,45.93,364.99,27623.35,8.23,2120.47,-223.33,86.91,-1.56,1707.7,41.32,310.24,-124995.06,10.69,1710.13,-140.62,136.72,-0.77,1953.69,44.2,277.34,-13371.02,4.17,1954.28,-31.67,36.5,-2.74,192.42,13.87,68.16,2581.13,3.96,199.91,0.0,84.07,49.68,407.53,20.19,84.07,-775.83,1.72,2875.66,-19.01,49.12,-4.17,153.57,12.39,68.13,5104.41,11.79,170.97
2.0,-0.38,1.34,0.54,0.13,0.36,1.72,-0.01,2.59,0.42,-0.77,0.69,0.31,0.06,0.24,1.46,-0.02,8.37,0.15,-0.23,2.05,0.59,0.12,0.35,2.29,0.03,6.04,0.47,-164.25,200.74,2.88,2099.06,45.82,364.99,30187.26,8.31,2107.36,-223.33,86.91,-1.83,1713.78,41.4,310.24,-123780.75,10.57,1717.11,-140.62,136.72,-0.25,2009.79,44.83,277.34,-11564.24,4.04,2009.85,-31.67,36.5,-2.61,192.04,13.86,68.16,2512.88,3.94,198.84,0.0,84.07,49.6,408.07,20.2,84.07,-680.67,1.71,2868.15,-19.01,51.54,-3.52,183.24,13.54,70.54,6482.66,10.63,195.61
3.0,-0.38,1.34,0.55,0.13,0.36,1.72,-0.01,2.54,0.43,-0.77,0.69,0.31,0.06,0.24,1.46,-0.02,8.42,0.15,-0.32,2.05,0.58,0.13,0.36,2.37,0.02,5.76,0.46,-164.25,200.74,2.5,2116.5,46.01,364.99,31858.63,8.2,2122.75,-223.33,86.91,-2.33,1698.83,41.22,310.24,-121862.06,10.66,1704.25,-140.62,136.72,-1.4,2158.89,46.46,277.34,-22609.6,3.97,2160.86,-31.67,36.5,-2.46,192.29,13.87,68.16,2436.68,3.89,198.36,0.0,84.07,49.52,408.01,20.2,84.07,-579.52,1.71,2859.77,-19.01,52.1,-2.87,212.88,14.59,71.11,7796.07,9.53,221.1
4.0,-0.38,1.34,0.55,0.14,0.37,1.72,-0.01,2.5,0.44,-0.77,0.69,0.31,0.06,0.24,1.46,-0.02,8.41,0.15,-0.32,2.05,0.57,0.13,0.36,2.37,0.02,5.55,0.46,-164.25,200.74,2.27,2118.47,46.03,364.99,33247.86,8.19,2123.64,-223.33,86.91,-2.38,1698.15,41.21,310.24,-121614.49,10.66,1703.8,-140.62,136.72,-0.74,2211.71,47.03,277.34,-23080.37,3.85,2212.25,-31.67,36.5,-2.35,192.32,13.87,68.16,2377.27,3.86,197.86,0.0,84.07,49.4,407.73,20.19,84.07,-438.44,1.71,2847.71,-19.01,52.98,-2.21,242.66,15.58,71.98,9068.86,8.57,247.55
5.0,-0.38,1.34,0.55,0.14,0.37,1.72,-0.01,2.49,0.44,-0.77,0.69,0.31,0.06,0.24,1.46,-0.02,8.37,0.15,-0.32,2.05,0.56,0.14,0.37,2.37,0.02,5.35,0.46,-164.25,200.74,2.02,2123.63,46.08,364.99,34762.64,8.16,2127.7,-223.33,86.91,-2.43,1698.76,41.22,310.24,-121365.43,10.64,1704.66,-140.62,136.72,-0.32,2233.44,47.26,277.34,-24864.88,3.79,2233.54,-31.67,36.5,-2.2,193.23,13.9,68.16,2302.43,3.79,198.08,0.0,84.07,49.23,406.8,20.17,84.07,-250.11,1.72,2830.32,-19.01,52.98,-1.57,270.33,16.44,71.98,10132.56,7.7,272.79
6.0,-0.38,1.35,0.56,0.14,0.38,1.73,-0.01,2.49,0.45,-0.77,0.69,0.31,0.06,0.24,1.46,-0.02,8.48,0.16,-0.32,2.05,0.56,0.14,0.38,2.37,0.02,5.15,0.45,-164.25,200.74,2.18,2129.34,46.14,364.99,33862.1,8.11,2134.11,-223.33,86.91,-2.21,1698.24,41.21,310.24,-122448.91,10.69,1703.13,-140.62,136.72,-1.58,2376.91,48.75,277.34,-33379.75,3.69,2379.42,-31.67,36.5,-1.98,193.24,13.9,68.16,2201.0,3.73,197.16,0.0,84.07,49.09,405.33,20.13,84.07,-99.27,1.73,2815.19,-19.01,53.34,-0.92,299.05,17.29,72.35,11215.39,6.97,299.89
7.0,-0.38,1.35,0.56,0.14,0.38,1.73,-0.01,2.46,0.46,-0.77,0.69,0.31,0.06,0.24,1.46,-0.02,8.53,0.16,-0.32,2.05,0.55,0.14,0.38,2.37,0.02,5.05,0.44,-164.25,200.74,2.05,2131.89,46.17,364.99,34645.94,8.09,2136.11,-223.33,86.91,-2.03,1698.63,41.21,310.24,-123342.28,10.71,1702.76,-140.62,136.72,-2.52,2369.13,48.67,277.34,-28814.85,3.69,2375.48,-31.67,36.5,-1.76,192.78,13.88,68.16,2100.12,3.69,195.87,0.0,84.07,48.8,404.78,20.12,84.07,191.18,1.73,2786.28,-19.01,53.34,-0.31,325.9,18.05,72.35,12097.88,6.32,326.0
8.0,-0.38,1.35,0.57,0.15,0.38,1.73,-0.01,2.41,0.47,-0.77,0.69,0.31,0.06,0.24,1.46,-0.02,8.45,0.16,-0.32,2.05,0.54,0.15,0.38,2.37,0.03,4.92,0.44,-164.25,200.74,1.35,2170.28,46.59,364.99,36757.28,7.86,2172.1,-223.33,86.91,-2.16,1699.22,41.22,310.24,-122717.59,10.68,1703.87,-140.62,136.72,-2.21,2409.68,49.09,277.34,-26902.78,3.63,2414.58,-31.67,36.5,-1.58,193.8,13.92,68.16,2017.26,3.62,196.31,0.0,84.07,48.57,401.98,20.05,84.07,413.38,1.75,2761.1,-19.01,54.38,0.36,354.03,18.82,73.39,13044.86,5.78,354.16
9.0,-0.38,1.35,0.58,0.15,0.39,1.73,-0.01,2.37,0.48,-0.77,0.69,0.31,0.06,0.24,1.46,-0.02,8.2,0.16,-0.32,2.05,0.53,0.15,0.39,2.37,0.03,4.84,0.43,-164.25,200.74,1.42,2169.18,46.57,364.99,36310.22,7.87,2171.19,-223.33,86.91,-1.8,1706.41,41.31,310.24,-124294.83,10.66,1709.66,-140.62,136.72,-3.07,2443.37,49.43,277.34,-23240.22,3.55,2452.78,-31.67,36.5,-1.37,196.13,14.0,68.16,1937.44,3.51,198.02,0.0,84.07,48.38,398.49,19.96,84.07,581.56,1.78,2738.78,-19.01,54.55,0.99,382.13,19.55,73.56,13916.45,5.31,383.11
10.0,-0.38,1.35,0.58,0.15,0.38,1.73,-0.01,2.4,0.49,-0.77,0.69,0.31,0.06,0.24,1.46,-0.02,8.13,0.15,-0.32,2.05,0.53,0.15,0.39,2.37,0.03,4.71,0.43,-164.25,200.74,1.9,2179.7,46.69,364.99,33617.34,7.78,2183.32,-223.33,86.91,-1.3,1696.21,41.19,310.24,-126378.02,10.87,1697.92,-140.62,136.72,-3.09,2444.22,49.44,277.34,-23108.55,3.54,2453.76,-31.67,36.5,-1.17,196.21,14.01,68.16,1839.71,3.47,197.59,0.0,84.07,48.2,395.4,19.88,84.07,738.03,1.8,2718.57,-19.01,54.55,1.61,409.31,20.23,73.56,14670.71,4.88,411.92
11.0,-0.38,1.35,0.59,0.15,0.39,1.73,-0.01,2.39,0.5,-0.77,0.69,0.3,0.06,0.24,1.46,-0.02,8.11,0.15,-0.32,2.05,0.52,0.16,0.39,2.37,0.03,4.62,0.42,-164.25,200.74,1.8,2179.18,46.68,364.99,34298.87,7.79,2182.41,-223.33,86.91,-1.79,1707.29,41.32,310.24,-124367.1,10.65,1710.51,-140.62,136.72,-2.13,2532.04,50.32,277.34,-22020.91,3.44,2536.58,-31.67,36.5,-0.91,195.71,13.99,68.16,1731.18,3.43,196.54,0.0,84.07,47.99,393.47,19.84,84.07,945.04,1.82,2696.98,-19.01,54.55,2.22,435.6,20.87,73.56,15313.84,4.5,440.53
12.0,-0.38,1.35,0.59,0.15,0.39,1.73,-0.01,2.39,0.5,-0.77,0.69,0.3,0.06,0.25,1.46,-0.02,7.7,0.15,-0.32,2.05,0.51,0.16,0.4,2.37,0.03,4.64,0.42,-164.25,200.74,1.15,2176.95,46.66,364.99,37837.36,7.82,2178.28,-223.33,86.91,-3.03,1689.72,41.11,310.24,-123006.82,10.61,1698.92,-140.62,136.72,-2.48,2524.17,50.24,277.34,-19633.99,3.45,2530.31,-31.67,36.5,-0.64,198.22,14.08,68.16,1638.65,3.33,198.64,0.0,84.07,47.79,391.18,19.78,84.07,1141.56,1.84,2675.46,-19.01,54.55,2.81,455.76,21.35,73.56,15556.11,4.16,463.67
13.0,-0.38,1.35,0.59,0.15,0.39,1.73,-0.01,2.37,0.51,-0.77,0.69,0.3,0.06,0.25,1.46,-0.02,7.7,0.15,-0.32,2.05,0.5,0.16,0.39,2.37,0.03,4.69,0.41,-164.25,200.74,1.08,2176.38,46.65,364.99,38323.27,7.83,2177.54,-223.33,86.91,-3.09,1683.55,41.03,310.24,-123189.98,10.66,1693.11,-140.62,136.72,-2.64,2520.83,50.21,277.34,-18477.06,3.46,2527.79,-31.67,36.5,-0.52,200.1,14.15,68.16,1591.83,3.25,200.37,0.0,84.07,47.4,392.04,19.8,84.07,1450.05,1.85,2639.21,-19.01,54.55,3.38,472.77,21.74,73.56,15605.8,3.87,484.21
14.0,-0.38,1.35,0.6,0.15,0.39,1.73,-0.01,2.33,0.51,-0.77,0.69,0.3,0.06,0.25,1.46,-0.02,7.61,0.15,-0.32,2.05,0.5,0.16,0.4,2.37,0.04,4.62,0.41,-164.25,200.74,1.04,2179.07,46.68,364.99,38381.11,7.81,2180.15,-223.33,86.91,-3.23,1682.88,41.02,310.24,-122505.48,10.65,1693.31,-140.62,136.72,-1.74,2515.93,50.16,277.34,-23432.94,3.48,2518.96,-31.67,36.5,-0.43,201.4,14.19,68.16,1549.91,3.2,201.58,0.0,84.07,47.14,389.97,19.75,84.07,1699.63,1.88,2612.44,-19.01,54.55,4.03,493.77,22.22,73.56,15853.3,3.6,509.98
15.0,-0.38,1.35,0.6,0.15,0.39,1.73,-0.01,2.34,0.51,-0.77,0.69,0.3,0.06,0.25,1.46,-0.02,7.49,0.15,-0.32,2.05,0.5,0.16,0.4,2.37,0.04,4.49,0.41,-164.25,200.74,1.79,2230.33,47.23,364.99,37145.84,7.49,2233.52,-223.33,86.91,-3.63,1681.06,41.0,310.24,-120635.34,10.6,1694.27,-140.62,136.72,-1.53,2528.07,50.28,277.34,-24513.23,3.45,2530.4,-31.67,36.5,-0.27,204.44,14.3,68.16,1509.37,3.11,204.51,0.0,84.07,47.01,387.98,19.7,84.07,1828.47,1.9,2597.77,-19.01,54.55,4.63,509.43,22.57,73.56,15797.21,3.37,530.84
16.0,-0.38,1.35,0.6,0.16,0.4,1.73,-0.01,2.3,0.52,-0.77,0.69,0.3,0.06,0.25,1.46,-0.02,7.52,0.15,-0.32,2.05,0.49,0.16,0.4,2.37,0.04,4.4,0.41,-164.25,200.74,2.02,2253.9,47.48,364.99,37430.41,7.35,2257.96,-223.33,86.91,-3.57,1683.63,41.03,310.24,-120877.34,10.58,1696.38,-140.62,136.72,-2.81,2609.47,51.08,277.34,-23777.61,3.35,2617.35,-31.67,36.5,-0.19,206.19,14.36,68.16,1488.47,3.05,206.22,0.0,84.07,46.85,384.53,19.61,84.07,1939.74,1.93,2579.89,-19.01,54.55,5.21,525.67,22.93,73.56,15727.5,3.15,552.83
17.0,-0.38,1.35,0.6,0.16,0.4,1.73,-0.02,2.29,0.52,-0.77,0.69,0.3,0.06,0.25,1.46,-0.02,7.71,0.15,-0.32,2.05,0.49,0.17,0.41,2.37,0.04,4.28,0.4,-164.25,200.74,1.89,2249.65,47.43,364.99,38199.18,7.38,2253.21,-223.33,86.91,-3.45,1682.55,41.02,310.24,-121482.0,10.61,1694.44,-140.62,136.72,-3.14,2599.58,50.99,277.34,-21523.7,3.37,2609.42,-31.67,36.5,-0.18,206.41,14.37,68.16,1486.75,3.05,206.44,0.0,84.07,46.62,379.88,19.49,84.07,2106.09,1.98,2553.43,-19.01,54.55,5.76,542.24,23.29,73.56,15636.65,2.96,575.43
18.0,-0.38,1.35,0.61,0.16,0.4,1.73,-0.02,2.27,0.53,-0.77,0.69,0.3,0.06,0.25,1.46,-0.02,7.81,0.15,-0.32,2.05,0.48,0.17,0.41,2.37,0.04,4.25,0.4,-164.25,200.74,1.33,2308.39,48.05,364.99,36980.33,7.1,2310.14,-223.33,86.91,-3.79,1684.6,41.04,310.24,-119849.41,10.53,1698.99,-140.62,136.72,-3.33,2587.06,50.86,277.34,-20612.11,3.39,2598.16,-31.67,36.5,-0.21,205.45,14.33,68.16,1484.94,3.07,205.5,0.0,84.07,46.33,374.91,19.36,84.07,2311.09,2.03,2521.28,-19.01,54.55,6.27,558.2,23.63,73.56,15503.74,2.78,597.45
19.0,-0.38,1.35,0.61,0.16,0.4,1.73,-0.02,2.27,0.53,-0.77,0.69,0.29,0.06,0.25,1.46,-0.02,7.5,0.15,-0.32,2.05,0.48,0.17,0.41,2.37,0.04,4.17,0.4,-164.25,200.74,1.85,2306.86,48.03,364.99,33723.27,7.1,2310.27,-223.33,86.91,-3.78,1685.49,41.05,310.24,-119887.49,10.52,1699.77,-140.62,136.72,-3.02,2581.65,50.81,277.34,-22870.73,3.41,2590.78,-31.67,36.5,-0.28,203.35,14.26,68.16,1481.67,3.12,203.43,0.0,84.07,46.08,370.39,19.25,84.07,2488.42,2.08,2493.85,-19.01,54.55,6.79,575.12,23.98,73.56,15381.23,2.62,621.25
20.0,-0.38,1.35,0.61,0.16,0.4,1.73,-0.02,2.27,0.53,-0.77,0.69,0.29,0.06,0.25,1.46,-0.02,7.68,0.14,-0.32,2.05,0.47,0.18,0.42,2.37,0.04,4.06,0.4,-164.25,200.74,2.11,2307.13,48.03,364.99,31983.58,7.09,2311.56,-223.33,86.91,-3.69,1687.14,41.07,310.24,-120297.57,10.52,1700.77,-140.62,136.72,-3.28,2600.83,51.0,277.34,-21954.74,3.36,2611.6,-31.67,36.5,-0.34,202.09,14.22,68.16,1496.69,3.16,202.2,0.0,84.07,45.77,364.39,19.09,84.07,2668.13,2.15,2459.46,-19.01,54.55,7.33,590.3,24.3,73.56,15152.24,2.47,643.96
21.0,-0.38,1.35,0.61,0.16,0.4,1.73,-0.02,2.23,0.54,-0.77,0.69,0.29,0.06,0.25,1.46,-0.02,7.68,0.14,-0.32,2.05,0.46,0.18,0.43,2.37,0.04,3.94,0.4,-164.25,200.74,2.4,2307.55,48.04,364.99,29984.53,7.08,2313.33,-223.33,86.91,-3.49,1689.71,41.11,310.24,-121260.82,10.52,1701.91,-140.62,136.72,-2.85,2628.71,51.27,277.34,-23799.79,3.31,2636.83,-31.67,36.5,-0.4,200.95,14.18,68.16,1513.31,3.2,201.11,0.0,84.07,45.49,359.03,18.95,84.07,2840.3,2.21,2428.49,-19.01,54.55,7.86,603.81,24.57,73.56,14832.23,2.34,665.65
22.0,-0.38,1.35,0.61,0.16,0.4,1.73,-0.02,2.23,0.54,-0.77,0.69,0.29,0.06,0.25,1.46,-0.02,7.49,0.14,-0.32,2.05,0.46,0.19,0.43,2.37,0.04,3.86,0.4,-164.25,200.74,2.47,2306.69,48.03,364.99,29524.48,7.09,2312.8,-223.33,86.91,-3.37,1689.16,41.1,310.24,-121885.32,10.55,1700.52,-140.62,136.72,-2.43,2633.65,51.32,277.34,-26906.07,3.31,2639.54,-31.67,36.5,-0.45,200.14,14.15,68.16,1536.93,3.23,200.34,0.0,84.07,45.22,353.21,18.79,84.07,2987.04,2.28,2398.01,-19.01,54.55,8.42,615.62,24.81,73.56,14433.51,2.22,686.56
23.0,-0.38,1.35,0.61,0.16,0.4,1.73,-0.02,2.23,0.54,-0.77,0.69,0.29,0.06,0.25,1.46,-0.02,7.32,0.15,-0.32,2.05,0.45,0.19,0.43,2.37,0.04,3.78,0.39,-164.25,200.74,2.63,2316.13,48.13,364.99,28843.11,7.03,2323.05,-223.33,86.91,-3.03,1695.43,41.18,310.24,-123437.34,10.53,1704.59,-140.62,136.72,-2.63,2627.3,51.26,277.34,-25456.49,3.32,2634.23,-31.67,36.5,-0.49,199.59,14.13,68.16,1553.13,3.25,199.83,0.0,84.07,44.87,347.38,18.64,84.07,3175.85,2.36,2360.41,-19.01,54.55,8.94,625.99,25.02,73.56,13971.77,2.11,705.95
24.0,-0.38,1.35,0.62,0.16,0.4,1.73,-0.02,2.21,0.55,-0.77,0.73,0.29,0.06,0.25,1.5,-0.02,7.08,0.15,-0.32,2.05,0.44,0.19,0.44,2.37,0.04,3.71,0.39,-164.25,200.74,1.73,2346.07,48.44,364.99,32563.49,6.89,2349.08,-223.33,86.91,-3.2,1695.58,41.18,310.24,-122568.77,10.5,1705.82,-140.62,136.72,-2.63,2627.51,51.26,277.34,-25470.13,3.32,2634.42,-31.67,36.5,-0.55,198.85,14.1,68.16,1581.05,3.29,199.15,0.0,84.07,44.46,341.37,18.48,84.07,3361.34,2.44,2318.35,-19.01,54.55,9.43,634.66,25.19,73.56,13454.23,2.02,723.62
25.0,-0.38,1.35,0.62,0.16,0.4,1.73,-0.02,2.21,0.55,-0.77,0.73,0.29,0.06,0.25,1.5,-0.02,6.94,0.15,-0.32,2.05,0.43,0.2,0.44,2.37,0.04,3.65,0.39,-164.25,200.74,0.96,2314.97,48.11,364.99,35876.24,7.08,2315.9,-223.33,86.91,-3.32,1696.47,41.19,310.24,-121944.86,10.46,1707.52,-140.62,136.72,-3.27,2559.69,50.59,277.34,-26533.29,3.41,2570.37,-31.67,36.5,-0.7,196.49,14.02,68.16,1635.0,3.38,196.98,0.0,84.07,44.09,334.17,18.28,84.07,3505.56,2.53,2278.09,-19.01,54.55,9.91,644.67,25.39,73.56,12965.97,1.93,742.92
26.0,-0.38,1.35,0.63,0.17,0.41,1.73,-0.02,2.23,0.56,-0.77,0.87,0.29,0.07,0.26,1.64,-0.02,6.66,0.15,-0.36,2.05,0.42,0.2,0.45,2.41,0.05,3.64,0.38,-164.25,200.74,0.92,2312.8,48.09,364.99,36050.45,7.09,2313.65,-223.33,86.91,-2.72,1662.35,40.77,310.24,-122981.16,10.96,1669.76,-140.62,136.72,-4.72,2576.65,50.76,277.34,-23172.14,3.37,2598.97,-31.67,36.5,-0.93,189.87,13.78,68.16,1596.66,3.53,190.74,0.0,84.07,43.81,328.92,18.14,84.07,3653.75,2.63,2248.44,-19.01,54.55,10.33,655.18,25.6,73.56,12529.15,1.84,761.95
27.0,-0.38,1.35,0.64,0.16,0.41,1.73,-0.02,2.29,0.57,-0.77,0.87,0.3,0.07,0.26,1.64,-0.02,6.39,0.16,-0.42,2.05,0.41,0.21,0.46,2.47,0.05,3.6,0.38,-164.25,200.74,0.59,2303.69,48.0,364.99,38070.95,7.16,2304.04,-223.33,86.91,-2.76,1662.21,40.77,310.24,-122771.67,10.96,1669.86,-140.62,136.72,-4.86,2556.3,50.56,277.34,-24310.76,3.39,2579.96,-31.67,36.5,-1.23,180.45,13.43,68.16,1471.97,3.69,181.96,0.0,84.07,43.62,326.44,18.07,84.07,3803.43,2.69,2228.88,-19.01,54.55,10.76,667.12,25.83,73.56,12122.58,1.77,782.98
28.0,-0.38,1.35,0.65,0.16,0.4,1.73,-0.02,2.37,0.58,-0.77,0.87,0.29,0.07,0.27,1.64,-0.02,6.13,0.16,-0.42,2.05,0.4,0.21,0.46,2.47,0.05,3.63,0.37,-164.25,200.74,0.54,2303.39,47.99,364.99,38415.19,7.16,2303.69,-223.33,86.91,-3.0,1659.47,40.74,310.24,-121668.74,10.95,1668.45,-140.62,136.72,-4.69,2570.95,50.7,277.34,-24662.71,3.36,2592.99,-31.67,36.5,-1.6,168.21,12.97,68.16,1233.49,3.79,170.76,0.0,84.07,43.5,325.65,18.05,84.07,3910.87,2.72,2217.79,-19.01,54.55,11.17,678.28,26.04,73.56,11697.23,1.7,803.1
29.0,-0.38,1.35,0.65,0.16,0.4,1.73,-0.03,2.44,0.59,-0.77,0.87,0.3,0.07,0.27,1.64,-0.02,6.06,0.16,-0.42,2.05,0.39,0.21,0.46,2.47,0.05,3.58,0.37,-164.25,200.74,0.73,2300.56,47.96,364.99,37136.62,7.17,2301.09,-223.33,86.91,-3.09,1659.76,40.74,310.24,-121191.54,10.93,1669.33,-140.62,136.72,-5.16,2574.9,50.74,277.34,-21315.74,3.34,2601.58,-31.67,36.5,-1.95,154.15,12.42,68.16,874.52,3.74,157.95,0.0,84.07,43.52,325.88,18.05,84.07,3896.17,2.71,2219.54,-19.01,54.55,11.53,688.51,26.24,73.56,11299.46,1.63,821.42
30.0,-0.38,1.35,0.66,0.15,0.39,1.73,-0.03,2.52,0.59,-0.77,0.87,0.3,0.07,0.27,1.64,-0.02,6.01,0.16,-0.42,2.05,0.38,0.21,0.46,2.47,0.06,3.66,0.35,-164.25,200.74,0.52,2320.7,48.17,364.99,37094.9,7.07,2320.97,-223.33,86.91,-3.12,1659.0,40.73,310.24,-121087.63,10.94,1668.73,-140.62,136.72,-4.94,2579.44,50.79,277.34,-22983.32,3.33,2603.81,-31.67,36.5,-2.28,139.55,11.81,68.16,445.98,3.46,144.75,0.0,84.07,43.61,327.34,18.09,84.07,3826.65,2.67,2228.91,-19.01,54.55,11.89,698.94,26.44,73.56,10885.36,1.58,840.39
31.0,-0.38,1.35,0.67,0.15,0.39,1.73,-0.03,2.62,0.6,-0.77,0.87,0.29,0.07,0.27,1.64,-0.02,6.13,0.16,-0.42,2.05,0.37,0.21,0.46,2.47,0.06,3.68,0.35,-164.25,200.74,0.36,2318.32,48.15,364.99,38166.7,7.09,2318.46,-223.33,86.91,-3.0,1652.8,40.65,310.24,-121456.97,11.04,1661.77,-140.62,136.72,-3.99,2560.99,50.61,277.34,-27894.06,3.38,2576.9,-31.67,36.5,-2.52,127.63,11.3,68.16,71.44,3.07,134.0,0.0,84.07,43.6,327.3,18.09,84.07,3828.65,2.68,2228.65,-19.01,54.55,12.33,709.82,26.64,73.56,10373.64,1.52,861.87
32.0,-0.38,1.35,0.68,0.15,0.38,1.73,-0.03,2.7,0.61,-0.77,0.87,0.29,0.07,0.27,1.64,-0.02,6.16,0.16,-0.42,2.05,0.36,0.21,0.46,2.47,0.06,3.7,0.34,-164.25,200.74,-0.08,2307.91,48.04,364.99,40872.68,7.17,2307.91,-223.33,86.91,-2.8,1655.28,40.69,310.24,-122372.05,11.04,1663.14,-140.62,136.72,-4.2,2587.68,50.87,277.34,-28757.02,3.34,2605.34,-31.67,36.5,-2.68,119.97,10.95,68.16,-159.51,2.77,127.16,0.0,84.07,43.52,325.03,18.03,84.07,3861.79,2.72,2219.16,-19.01,54.55,12.79,718.03,26.8,73.56,9746.28,1.47,881.49
33.0,-0.38,1.35,0.69,0.14,0.38,1.73,-0.03,2.8,0.62,-0.77,0.87,0.3,0.07,0.27,1.64,-0.02,6.03,0.16,-0.42,2.05,0.35,0.22,0.47,2.47,0.07,3.68,0.34,-164.25,200.74,0.52,2308.98,48.05,364.99,37220.64,7.14,2309.25,-223.33,86.91,-2.76,1657.37,40.71,310.24,-122531.54,11.02,1664.97,-140.62,136.72,-3.25,2596.93,50.96,277.34,-33937.19,3.34,2607.49,-31.67,36.5,-2.87,113.63,10.66,68.16,-267.71,2.72,121.88,0.0,84.07,43.37,319.39,17.87,84.07,3843.06,2.79,2200.32,-19.01,54.55,13.28,725.96,26.94,73.56,9073.95,1.42,902.24
34.0,-0.38,1.35,0.69,0.14,0.38,1.73,-0.03,2.9,0.62,-0.77,0.87,0.29,0.07,0.27,1.64,-0.02,6.11,0.16,-0.42,2.05,0.34,0.22,0.47,2.47,0.07,3.73,0.33,-164.25,200.74,0.78,2317.94,48.14,364.99,35714.22,7.08,2318.55,-223.33,86.91,-2.63,1652.49,40.65,310.24,-123023.26,11.11,1659.4,-140.62,136.72,-2.66,2614.81,51.14,277.34,-37613.07,3.31,2621.9,-31.67,36.5,-2.96,110.78,10.53,68.16,-308.54,2.72,119.55,0.0,84.07,43.14,312.02,17.66,84.07,3849.45,2.9,2173.3,-19.01,54.55,13.83,732.05,27.06,73.56,8337.62,1.38,923.34
35.0,-0.38,1.35,0.7,0.14,0.37,1.73,-0.03,3.03,0.63,-0.77,0.87,0.3,0.07,0.27,1.64,-0.02,6.06,0.16,-0.42,2.05,0.33,0.22,0.47,2.47,0.07,3.79,0.33,-164.25,200.74,0.11,2340.17,48.38,364.99,39118.27,6.98,2340.18,-223.33,86.91,-2.3,1651.04,40.63,310.24,-124564.67,11.19,1656.32,-140.62,136.72,-3.3,2693.01,51.89,277.34,-40423.35,3.21,2703.88,-31.67,36.5,-2.96,110.74,10.52,68.16,-308.87,2.72,119.51,0.0,84.07,42.89,300.8,17.34,84.07,3667.11,3.0,2140.35,-19.01,54.55,14.33,738.29,27.17,73.56,7605.23,1.34,943.7
36.0,-0.38,1.35,0.71,0.13,0.36,1.73,-0.03,3.12,0.64,-0.77,0.87,0.3,0.07,0.27,1.64,-0.02,6.07,0.16,-0.42,2.05,0.31,0.22,0.47,2.47,0.08,3.82,0.32,-164.25,200.74,0.29,2338.18,48.35,364.99,37844.07,6.98,2338.26,-223.33,86.91,-2.48,1650.4,40.63,310.24,-123692.22,11.16,1656.54,-140.62,136.72,-2.51,2701.59,51.98,277.34,-45495.53,3.22,2707.91,-31.67,36.5,-2.95,110.92,10.53,68.16,-313.14,2.72,119.59,0.0,84.07,42.7,289.8,17.02,84.07,3354.35,3.03,2112.71,-19.01,54.55,14.8,743.39,27.27,73.56,6860.19,1.31,962.56
37.0,-0.38,1.35,0.72,0.13,0.36,1.73,-0.03,3.24,0.65,-0.77,0.87,0.29,0.07,0.27,1.64,-0.02,6.04,0.16,-0.42,2.05,0.3,0.22,0.47,2.47,0.08,3.96,0.31,-164.25,200.74,0.52,2336.98,48.34,364.99,36302.05,6.98,2337.25,-223.33,86.91,-3.2,1674.02,40.91,310.24,-121612.17,10.75,1684.26,-140.62,136.72,-2.23,2712.07,52.08,277.34,-47458.08,3.2,2717.04,-31.67,36.5,-2.79,115.45,10.74,68.16,-256.79,2.71,123.24,0.0,84.07,42.33,275.62,16.6,84.07,3130.1,3.15,2067.46,-19.01,54.55,15.3,747.37,27.34,73.56,6078.65,1.28,981.57
38.0,-0.38,1.35,0.73,0.12,0.35,1.73,-0.03,3.29,0.66,-0.77,0.87,0.3,0.07,0.27,1.64,-0.02,5.98,0.16,-0.42,2.05,0.29,0.22,0.47,2.47,0.08,4.09,0.3,-164.25,200.74,0.36,2340.18,48.38,364.99,37357.04,6.97,2340.31,-223.33,86.91,-2.71,1715.68,41.42,310.24,-121159.84,10.38,1723.02,-140.62,136.72,-3.08,2786.29,52.79,277.34,-46789.18,3.08,2795.8,-31.67,36.5,-2.69,118.21,10.87,68.16,-235.78,2.67,125.42,0.0,84.07,42.08,263.1,16.22,84.07,2825.91,3.22,2033.71,-19.01,54.55,15.82,751.49,27.41,73.56,5287.32,1.26,1001.69
39.0,-0.38,1.35,0.74,0.12,0.35,1.73,-0.03,3.32,0.67,-0.77,0.87,0.3,0.07,0.27,1.64,-0.02,6.02,0.16,-0.42,2.05,0.28,0.22,0.46,2.47,0.09,4.18,0.3,-164.25,200.74,1.6,2201.86,46.92,364.99,45220.09,7.43,2204.44,-223.33,86.91,-1.96,1648.14,40.6,310.24,-119302.97,11.21,1651.99,-140.62,136.72,-1.47,2777.06,52.7,277.34,-49669.95,3.13,2779.22,-31.67,36.5,-2.58,118.47,10.88,68.16,-269.25,2.67,125.14,0.0,84.07,42.03,260.55,16.14,84.07,2757.23,3.23,2027.26,-19.01,54.55,16.41,748.51,27.36,73.56,4484.1,1.24,1017.67
40.0,-0.38,1.35,0.75,0.11,0.34,1.73,-0.02,3.31,0.67,-0.77,0.87,0.29,0.07,0.27,1.64,-0.02,6.11,0.16,-0.42,2.05,0.27,0.22,0.47,2.47,0.09,4.23,0.29,-164.25,200.74,0.77,2212.83,47.04,364.99,49181.46,7.4,2213.42,-223.33,86.91,-2.6,1676.15,40.94,310.24,-117677.72,10.76,1682.94,-140.62,136.72,-0.86,2810.85,53.02,277.34,-52766.11,3.08,2811.6,-31.67,36.5,-2.09,123.89,11.13,68.16,-104.36,2.91,128.26,0.0,84.07,41.96,257.87,16.06,84.07,2731.7,3.28,2018.79,-19.01,54.55,16.95,744.01,27.28,73.56,3696.73,1.22,1031.24
41.0,-0.38,1.58,0.76,0.12,0.34,1.96,-0.02,3.47,0.7,-0.77,0.87,0.29,0.07,0.27,1.64,-0.02,5.96,0.16,-0.42,2.05,0.26,0.22,0.47,2.47,0.09,4.22,0.29,-164.25,200.74,-0.1,2191.22,46.81,364.99,52885.67,7.57,2191.23,-223.33,86.91,-2.77,1664.38,40.8,310.24,-117499.46,10.88,1672.04,-164.61,136.72,-2.23,3069.62,55.4,301.33,-83908.46,3.3,3074.58,-31.67,36.5,-1.67,126.38,11.24,68.16,-63.13,2.95,129.16,0.0,84.07,42.09,264.43,16.26,84.07,2904.64,3.24,2035.62,-19.01,54.55,17.39,734.46,27.1,73.56,3084.2,1.22,1036.96
42.0,-0.38,1.58,0.77,0.11,0.34,1.96,-0.02,3.58,0.71,-0.77,0.87,0.3,0.07,0.27,1.64,-0.02,5.98,0.16,-0.42,2.05,0.25,0.22,0.47,2.47,0.1,4.3,0.28,-164.25,200.74,-0.4,2185.11,46.75,364.99,54684.74,7.62,2185.27,-223.33,86.91,-1.98,1642.31,40.53,310.24,-119726.6,11.28,1646.21,-164.61,136.72,-1.81,3041.19,55.15,301.33,-86079.91,3.36,3044.47,-31.67,36.5,-1.39,123.66,11.12,68.16,-93.74,3.01,125.59,0.0,84.07,42.24,274.78,16.58,84.07,3321.6,3.31,2058.74,-19.01,54.55,17.7,727.18,26.97,73.56,2619.61,1.23,1040.33
43.0,-0.38,1.58,0.78,0.11,0.33,1.96,-0.02,3.74,0.71,-0.77,0.87,0.29,0.07,0.27,1.64,-0.02,5.83,0.16,-0.42,2.05,0.24,0.22,0.47,2.47,0.1,4.44,0.28,-164.25,200.74,-0.57,2180.14,46.69,364.99,55652.94,7.66,2180.46,-223.33,86.91,-2.31,1648.27,40.6,310.24,-118227.76,11.14,1653.63,-164.61,136.72,-1.41,3027.44,55.02,301.33,-89231.44,3.41,3029.42,-31.67,36.5,-0.81,121.72,11.03,68.16,180.58,2.88,122.38,0.0,84.07,42.36,280.24,16.74,84.07,3401.88,3.24,2074.73,-19.01,54.55,18.0,724.18,26.91,73.56,2053.71,1.23,1048.1
44.0,-0.38,1.58,0.79,0.11,0.33,1.96,-0.02,3.88,0.73,-0.77,0.87,0.3,0.07,0.27,1.64,-0.02,5.95,0.16,-0.54,2.05,0.23,0.22,0.47,2.59,0.1,4.52,0.27,-164.25,200.74,-0.74,2188.13,46.78,364.99,56460.93,7.62,2188.67,-223.33,86.91,-2.11,1638.12,40.47,310.24,-118855.96,11.31,1642.56,-164.61,136.72,-2.01,3111.72,55.78,301.33,-93022.44,3.3,3115.77,-31.67,36.5,-0.38,116.93,10.81,68.16,262.83,2.75,117.08,0.0,84.07,42.6,292.82,17.11,84.07,3723.05,3.17,2107.76,-19.01,54.55,18.19,719.57,26.82,73.56,1738.73,1.24,1050.44
45.0,-0.38,1.58,0.8,0.1,0.32,1.96,-0.02,4.03,0.74,-0.77,0.87,0.3,0.07,0.27,1.64,-0.02,6.02,0.16,-0.54,2.05,0.22,0.22,0.47,2.59,0.11,4.69,0.26,-164.25,200.74,-0.59,2184.36,46.74,364.99,55606.02,7.64,2184.71,-223.33,86.91,-1.97,1638.18,40.47,310.24,-119500.98,11.33,1642.08,-164.61,136.72,-1.17,3190.63,56.49,301.33,-93998.85,3.23,3191.99,-31.67,36.5,0.03,112.05,10.59,68.16,344.34,2.59,112.05,0.0,84.07,42.92,306.07,17.49,84.07,3937.34,3.04,2147.88,-19.01,54.55,18.35,716.56,26.77,73.56,1453.27,1.25,1053.17
46.0,-0.38,1.58,0.8,0.1,0.32,1.96,-0.02,4.16,0.75,-0.77,0.87,0.3,0.07,0.27,1.64,-0.02,5.91,0.16,-0.54,2.05,0.21,0.21,0.46,2.59,0.11,4.94,0.26,-164.25,200.74,-1.08,2150.54,46.37,364.99,56702.54,7.88,2151.7,-223.33,86.91,-2.85,1558.42,39.48,310.24,-122425.86,12.09,1566.54,-164.61,136.72,-1.21,3192.48,56.5,301.33,-93636.6,3.23,3193.94,-31.67,36.5,0.6,115.68,10.76,68.16,614.83,2.79,116.03,0.0,84.07,43.06,310.11,17.61,84.07,3895.92,2.96,2164.35,-19.01,54.55,18.52,713.02,26.7,73.56,1147.58,1.26,1056.04
47.0,-0.38,1.58,0.81,0.1,0.31,1.96,-0.02,4.38,0.75,-0.77,0.87,0.3,0.07,0.27,1.64,-0.02,5.97,0.16,-0.54,2.05,0.2,0.21,0.46,2.59,0.11,5.0,0.25,-164.25,200.74,-1.19,2145.07,46.31,364.99,57203.16,7.92,2146.48,-223.33,86.91,-2.73,1560.65,39.51,310.24,-122950.01,12.08,1568.11,-164.61,136.72,-1.51,3206.96,56.63,301.33,-91313.32,3.19,3209.25,-31.67,36.5,0.87,113.88,10.67,68.16,580.76,2.77,114.63,0.0,84.07,43.45,324.05,18.0,84.07,4047.84,2.84,2211.95,-19.01,54.55,18.79,705.41,26.56,73.56,792.69,1.27,1058.34
48.0,-0.38,1.58,0.82,0.09,0.3,1.96,-0.02,4.49,0.76,-0.77,0.87,0.31,0.06,0.25,1.64,-0.01,5.2,0.16,-0.54,2.05,0.18,0.18,0.42,2.59,0.06,3.51,0.21,-164.25,200.74,-2.72,1884.73,43.41,364.99,24306.63,8.41,1892.14,-223.33,86.91,-0.61,1070.17,32.71,310.24,-22437.97,5.15,1070.53,-164.61,136.72,-0.39,3348.07,57.86,301.33,-85480.01,3.14,3348.23,-31.67,36.5,1.17,112.87,10.62,68.16,547.71,2.73,114.23,0.0,84.07,43.86,336.95,18.36,84.07,4116.29,2.72,2260.97,-19.01,54.55,19.06,697.29,26.41,73.56,451.87,1.28,1060.53
49.0,-0.38,1.58,0.82,0.09,0.3,1.96,-0.02,4.67,0.77,-0.77,0.87,0.31,0.06,0.25,1.64,-0.01,5.3,0.16,-0.54,2.05,0.17,0.18,0.42,2.59,0.06,3.62,0.21,-164.25,200.74,-1.78,1781.7,42.21,364.99,29692.71,9.04,1784.88,-223.33,86.91,-1.15,1045.77,32.34,310.24,-21947.11,5.29,1047.08,-164.61,136.72,-0.8,3336.61,57.76,301.33,-81785.81,3.15,3337.25,-31.67,36.5,1.55,121.05,11.0,68.16,683.15,2.84,123.44,0.0,84.07,44.23,340.27,18.45,84.07,3889.35,2.64,2296.9,-19.01,54.55,19.2,692.99,26.32,73.56,264.79,1.29,1061.6
50.0,-0.38,1.58,0.82,0.09,0.3,1.96,-0.02,4.7,0.77,-0.77,0.87,0.31,0.06,0.25,1.64,-0.01,5.28,0.16,-0.54,2.05,0.15,0.17,0.41,2.59,0.06,3.81,0.2,-164.25,200.74,-1.19,1797.2,42.39,364.99,27345.54,8.88,1798.63,-223.33,86.91,-1.06,1047.94,32.37,310.24,-22159.52,5.28,1049.07,-164.61,136.72,-0.81,3337.21,57.77,301.33,-81708.48,3.15,3337.88,-31.67,36.5,1.75,120.21,10.96,68.16,632.98,2.83,123.28,0.0,84.07,44.78,351.99,18.76,84.07,3914.15,2.56,2356.8,-19.01,54.55,19.32,691.43,26.3,73.56,43.07,1.3,1064.52
51.0,-0.38,1.58,0.84,0.09,0.3,1.96,-0.02,4.82,0.79,-0.77,0.87,0.32,0.06,0.25,1.64,-0.01,5.39,0.16,-0.54,2.05,0.15,0.17,0.42,2.59,0.07,3.81,0.2,-164.25,200.74,-1.28,1797.24,42.39,364.99,27794.89,8.88,1798.87,-223.33,86.91,-1.91,1024.39,32.01,310.24,-21542.15,5.36,1028.05,-164.61,136.72,-0.07,3405.62,58.36,301.33,-83449.9,3.09,3405.62,-31.67,36.5,1.94,120.09,10.96,68.16,582.35,2.8,123.84,0.0,84.07,45.38,361.26,19.01,84.07,3924.35,2.49,2420.46,-19.01,54.55,19.52,687.17,26.21,73.56,-295.55,1.31,1068.26
52.0,-0.38,1.58,0.84,0.09,0.3,1.96,-0.02,4.9,0.8,-0.77,0.87,0.32,0.06,0.25,1.64,-0.01,5.27,0.16,-0.54,2.05,0.14,0.17,0.42,2.59,0.07,3.93,0.19,-164.25,200.74,-1.5,1788.38,42.29,364.99,28735.28,8.97,1790.65,-223.33,86.91,-2.29,1028.08,32.06,310.24,-20534.61,5.3,1033.35,-164.61,136.72,0.73,3409.73,58.39,301.33,-90333.5,3.1,3410.26,-31.67,36.5,2.34,127.83,11.31,68.16,707.2,2.88,133.3,0.0,84.07,45.83,358.72,18.94,84.07,3678.04,2.45,2459.22,-19.01,54.55,19.6,685.0,26.17,73.56,-423.04,1.32,1069.35
53.0,-0.38,1.58,0.84,0.09,0.3,1.96,-0.02,4.81,0.8,-0.77,0.87,0.32,0.06,0.25,1.64,-0.01,5.09,0.17,-0.54,2.05,0.13,0.17,0.41,2.59,0.07,4.09,0.19,-164.25,200.74,-0.87,1834.78,42.83,364.99,28448.92,8.57,1835.53,-223.33,86.91,-1.88,1042.46,32.29,310.24,-21261.58,5.2,1046.01,-164.61,136.72,-0.58,3563.0,59.69,301.33,-95736.5,2.99,3563.33,-31.67,36.5,2.57,129.21,11.37,68.16,655.07,2.81,135.82,0.0,84.07,46.44,362.56,19.04,84.07,3608.28,2.39,2519.6,-19.01,54.55,19.68,683.32,26.14,73.56,-543.76,1.33,1070.56
54.0,-0.38,1.58,0.85,0.09,0.3,1.96,-0.02,4.82,0.81,-0.77,0.87,0.33,0.06,0.25,1.64,-0.01,5.09,0.17,-0.54,2.05,0.13,0.17,0.41,2.59,0.07,4.2,0.19,-164.25,200.74,-1.15,1844.76,42.95,364.99,29701.89,8.49,1846.09,-223.33,86.91,-1.97,1042.85,32.29,310.24,-20987.77,5.19,1046.73,-164.61,136.72,0.08,3600.6,60.0,301.33,-100483.48,2.96,3600.6,-31.67,36.5,2.73,129.12,11.36,68.16,603.85,2.79,136.57,0.0,84.07,47.07,366.22,19.14,84.07,3557.04,2.33,2582.0,-19.01,54.55,19.75,681.78,26.11,73.56,-661.7,1.33,1071.79
55.0,-0.38,1.58,0.85,0.09,0.3,1.96,-0.02,4.84,0.81,-0.77,0.87,0.32,0.06,0.25,1.64,-0.01,4.98,0.17,-0.54,2.05,0.12,0.17,0.41,2.59,0.07,4.32,0.18,-164.25,200.74,-1.68,1842.83,42.93,364.99,32238.49,8.52,1845.64,-223.33,86.91,-2.01,1043.14,32.3,310.24,-20878.96,5.19,1047.17,-164.61,136.72,0.75,3619.76,60.16,301.33,-106592.94,2.95,3620.33,-31.67,36.5,3.04,133.72,11.56,68.16,607.58,2.71,142.97,0.0,84.07,47.54,361.05,19.0,84.07,3347.89,2.3,2621.53,-19.01,54.55,19.78,681.05,26.1,73.56,-702.88,1.33,1072.14
56.0,-0.38,1.58,0.85,0.09,0.31,1.96,-0.02,4.78,0.82,-0.77,0.87,0.32,0.06,0.25,1.64,-0.01,4.94,0.17,-0.54,2.05,0.11,0.16,0.4,2.59,0.07,4.57,0.18,-164.25,200.74,-2.0,1846.39,42.97,364.99,33893.84,8.5,1850.38,-223.33,86.91,-2.01,1043.03,32.3,310.24,-20878.33,5.19,1047.07,-171.26,136.72,-1.07,3911.22,62.54,307.98,-136077.8,3.03,3912.37,-31.67,36.5,3.26,133.57,11.56,68.16,546.04,2.68,144.21,0.0,84.07,48.08,359.49,18.96,84.07,3154.48,2.25,2671.0,-19.01,54.55,19.82,679.95,26.08,73.56,-766.05,1.34,1072.69
57.0,-0.38,1.58,0.86,0.09,0.31,1.96,-0.02,4.9,0.83,-0.77,0.87,0.32,0.06,0.25,1.64,-0.01,4.83,0.17,-0.54,2.05,0.11,0.16,0.4,2.59,0.08,4.65,0.17,-164.25,200.74,-2.3,1862.3,43.15,364.99,34877.46,8.38,1867.58,-223.33,86.91,-2.28,1035.82,32.18,310.24,-20215.78,5.23,1041.03,-171.26,136.72,-1.73,3917.8,62.59,307.98,-129159.62,3.0,3920.77,-31.67,36.5,3.28,133.31,11.55,68.16,542.41,2.69,144.06,0.0,84.07,48.62,359.84,18.97,84.07,2969.36,2.2,2723.9,-19.01,54.55,20.01,675.9,26.0,73.56,-1078.53,1.35,1076.36
58.0,-0.38,1.58,0.86,0.09,0.31,1.96,-0.02,4.97,0.83,-0.77,0.87,0.31,0.07,0.26,1.64,-0.01,4.63,0.17,-0.54,2.05,0.11,0.16,0.4,2.59,0.08,4.71,0.17,-164.25,200.74,-2.9,1845.03,42.95,364.99,37303.32,8.55,1853.43,-223.33,86.91,-2.27,1035.59,32.18,310.24,-20254.53,5.24,1040.74,-171.26,136.72,-0.24,4021.89,63.42,307.98,-133190.42,2.98,4021.95,-31.67,36.5,3.47,132.89,11.53,68.16,483.82,2.68,144.95,0.0,84.07,49.13,359.13,18.95,84.07,2748.45,2.15,2772.67,-19.01,54.55,20.21,671.19,25.91,73.56,-1366.9,1.37,1079.46
59.0,-0.38,1.58,0.86,0.09,0.31,1.96,-0.02,4.86,0.84,-0.77,0.87,0.31,0.07,0.26,1.64,-0.01,4.52,0.16,-0.54,2.05,0.1,0.16,0.4,2.59,0.08,5.01,0.17,-164.25,200.74,-3.18,1831.5,42.8,364.99,38343.35,8.68,1841.64,-223.33,86.91,-1.3,1056.85,32.51,310.24,-20662.08,5.19,1058.53,-171.26,136.72,-0.53,4029.21,63.48,307.98,-129990.99,2.96,4029.49,-31.67,36.5,3.76,133.79,11.57,68.16,429.12,2.64,147.89,0.0,84.07,49.59,355.29,18.85,84.07,2522.48,2.13,2814.15,-19.01,54.55,20.32,668.21,25.85,73.56,-1533.47,1.38,1081.09
60.0,-0.38,1.58,0.86,0.09,0.31,1.96,-0.02,4.93,0.84,-0.77,0.87,0.31,0.07,0.26,1.64,-0.01,4.54,0.16,-0.54,2.05,0.09,0.15,0.39,2.59,0.08,5.37,0.16,-164.25,200.74,-2.49,1829.26,42.77,364.99,35377.01,8.67,1835.47,-223.33,86.91,-1.22,1061.29,32.58,310.24,-20723.1,5.16,1062.78,-171.26,136.72,-0.89,4028.64,63.47,307.98,-125674.58,2.95,4029.44,-31.67,36.5,3.93,132.52,11.51,68.16,378.84,2.66,147.99,0.0,84.07,50.1,352.64,18.78,84.07,2325.55,2.09,2862.64,-19.01,54.55,20.51,664.72,25.78,73.56,-1846.1,1.39,1085.32
61.0,-0.38,1.58,0.87,0.09,0.3,1.96,-0.02,5.19,0.84,-0.77,0.87,0.31,0.07,0.26,1.64,-0.01,4.51,0.16,-0.54,2.05,0.09,0.15,0.39,2.59,0.08,5.46,0.16,-164.25,200.74,-2.55,1831.95,42.8,364.99,35583.68,8.65,1838.44,-223.33,86.91,-1.53,1059.75,32.55,310.24,-19813.85,5.16,1062.09,-171.26,136.72,-0.23,4109.04,64.1,307.98,-125736.28,2.9,4109.09,-31.67,36.5,4.14,133.02,11.53,68.16,319.32,2.63,150.18,0.0,84.07,50.59,348.24,18.66,84.07,2132.38,2.06,2907.34,-19.01,54.55,20.7,658.88,25.67,73.56,-2076.28,1.41,1087.39
62.0,-0.38,1.58,0.87,0.09,0.3,1.96,-0.02,5.19,0.84,-0.77,0.87,0.3,0.07,0.26,1.64,-0.01,4.38,0.16,-0.54,2.05,0.08,0.15,0.38,2.59,0.08,5.67,0.15,-164.25,200.74,-3.17,1822.25,42.69,364.99,38289.65,8.76,1832.33,-223.33,86.91,-1.34,1060.52,32.57,310.24,-20405.21,5.16,1062.31,-171.26,136.72,-0.4,4118.86,64.18,307.98,-124018.1,2.88,4119.02,-31.67,36.5,4.45,134.35,11.59,68.16,273.77,2.59,154.18,0.0,84.07,50.95,344.92,18.57,84.07,1897.1,2.06,2941.14,-19.01,54.55,20.84,654.29,25.58,73.56,-2237.92,1.43,1088.7
63.0,-0.38,1.58,0.87,0.09,0.3,1.96,-0.02,5.15,0.84,-0.77,0.87,0.3,0.07,0.26,1.64,-0.01,4.37,0.16,-0.54,2.05,0.08,0.14,0.38,2.59,0.08,5.96,0.15,-164.25,200.74,-2.47,1832.49,42.81,364.99,35421.7,8.64,1838.61,-223.33,86.91,-1.45,1056.84,32.51,310.24,-20154.72,5.19,1058.93,-171.26,136.72,-0.65,4102.37,64.05,307.98,-121785.79,2.9,4102.8,-31.67,36.5,4.63,133.23,11.54,68.16,220.99,2.61,154.71,0.0,84.07,51.41,343.26,18.53,84.07,1668.48,2.04,2986.26,-19.01,54.55,21.06,647.83,25.45,73.56,-2493.89,1.45,1091.37
64.0,-0.38,1.58,0.87,0.09,0.3,1.96,-0.02,5.26,0.85,-0.77,0.87,0.31,0.07,0.26,1.64,-0.01,4.39,0.16,-0.54,2.05,0.07,0.14,0.38,2.59,0.08,6.21,0.15,-164.25,200.74,-2.31,1828.0,42.76,364.99,34648.23,8.68,1833.36,-223.33,86.91,-1.26,1050.18,32.41,310.24,-20550.99,5.26,1051.78,-171.26,136.72,1.09,4113.86,64.14,307.98,-129939.68,2.94,4115.06,-31.67,36.5,4.84,133.27,11.54,68.16,161.03,2.6,156.64,0.0,84.07,51.93,338.32,18.39,84.07,1519.88,2.01,3034.66,-19.01,54.55,21.23,642.85,25.35,73.56,-2702.68,1.47,1093.6
65.0,-0.38,1.58,0.87,0.09,0.3,1.96,-0.02,5.32,0.85,-0.77,0.87,0.3,0.07,0.27,1.64,-0.01,4.21,0.16,-0.54,2.05,0.06,0.14,0.37,2.59,0.08,6.55,0.14,-164.25,200.74,-2.47,1826.84,42.74,364.99,35465.96,8.7,1832.92,-223.33,86.91,-1.81,1020.4,31.94,310.24,-20477.86,5.45,1023.67,-171.26,136.72,-0.51,3933.51,62.72,307.98,-136101.16,2.94,3933.77,-31.67,36.5,5.11,135.31,11.63,68.16,113.1,2.56,161.38,0.0,84.07,52.4,329.51,18.15,84.07,1432.15,1.99,3074.8,-19.01,54.55,21.3,640.3,25.3,73.56,-2767.41,1.48,1094.04
66.0,-0.38,1.58,0.87,0.09,0.3,1.96,-0.02,5.36,0.85,-0.77,0.87,0.3,0.07,0.27,1.64,-0.01,4.2,0.16,-0.54,2.05,0.06,0.14,0.37,2.59,0.08,6.9,0.14,-164.25,200.74,-2.53,1818.53,42.64,364.99,34939.0,8.76,1824.92,-223.33,86.91,-1.36,1030.0,32.09,310.24,-21469.62,5.39,1031.86,-171.26,136.72,0.51,3902.66,62.47,307.98,-144734.55,3.01,3902.92,-31.67,36.5,5.32,133.57,11.56,68.16,61.7,2.6,161.88,0.0,84.07,52.89,327.71,18.1,84.07,1252.26,1.97,3125.12,-19.01,54.55,21.49,633.47,25.17,73.56,-2922.88,1.5,1095.24
67.0,-0.38,1.58,0.88,0.09,0.3,1.96,-0.02,5.3,0.86,-0.77,0.87,0.31,0.07,0.27,1.64,-0.01,4.26,0.17,-0.54,2.05,0.06,0.14,0.37,2.59,0.08,6.9,0.14,-164.25,200.74,-2.65,1815.0,42.6,364.99,35501.19,8.79,1822.0,-223.33,86.91,-2.42,976.02,31.24,310.24,-23290.32,5.52,981.86,-171.26,136.72,0.26,3858.23,62.11,307.98,-148060.03,3.02,3858.3,-31.67,36.5,5.61,134.58,11.6,68.16,8.72,2.58,166.06,0.0,84.07,53.26,328.9,18.14,84.07,1017.48,1.94,3165.98,-19.01,54.55,21.74,622.51,24.95,73.56,-3001.63,1.53,1095.19
68.0,-0.38,1.58,0.87,0.09,0.3,1.96,-0.02,5.31,0.85,-0.77,0.87,0.3,0.07,0.27,1.64,-0.01,4.19,0.16,-0.54,2.05,0.05,0.13,0.37,2.59,0.08,7.07,0.14,-164.25,200.74,-3.14,1800.45,42.43,364.99,37564.55,8.95,1810.32,-223.33,86.91,-3.07,951.05,30.84,310.24,-22811.53,5.66,960.49,-171.26,136.72,-0.84,3831.85,61.9,307.98,-139154.06,3.01,3832.56,-31.67,36.5,5.9,138.51,11.77,68.16,-9.18,2.54,173.33,0.0,84.07,53.6,327.41,18.09,84.07,787.32,1.94,3199.85,-19.01,54.55,21.93,612.55,24.75,73.56,-2947.49,1.54,1093.56
69.0,-0.38,1.58,0.87,0.09,0.3,1.96,-0.02,5.26,0.85,-0.77,0.87,0.3,0.07,0.27,1.64,-0.01,4.15,0.16,-0.54,2.05,0.06,0.13,0.37,2.59,0.08,7.06,0.14,-164.25,200.74,-3.46,1763.75,42.0,364.99,36067.98,9.26,1775.74,-223.33,86.91,-2.87,958.19,30.95,310.24,-23171.46,5.61,966.45,-171.26,136.72,0.1,3734.86,61.11,307.98,-140302.05,3.14,3734.87,-31.67,36.5,6.05,139.76,11.82,68.16,-55.37,2.51,176.36,0.0,84.07,53.9,333.47,18.26,84.07,645.01,1.9,3238.98,-19.01,54.55,22.24,597.14,24.44,73.56,-2850.74,1.56,1091.69
70.0,-0.38,1.58,0.87,0.09,0.3,1.96,-0.02,5.17,0.86,-0.77,0.87,0.31,0.07,0.27,1.64,-0.01,4.17,0.17,-0.54,2.05,0.06,0.13,0.37,2.59,0.08,7.06,0.14,-164.25,200.74,-3.08,1761.9,41.97,364.99,34201.25,9.26,1771.4,-223.33,86.91,-3.13,957.92,30.95,310.24,-22475.54,5.58,967.72,-171.26,136.72,0.37,3761.61,61.33,307.98,-141298.13,3.11,3761.75,-31.67,36.5,6.24,142.53,11.94,68.16,-87.59,2.45,181.43,0.0,84.07,54.15,338.09,18.39,84.07,502.16,1.86,3269.81,-19.01,54.55,22.52,581.8,24.12,73.56,-2661.11,1.57,1088.89
71.0,-0.38,1.58,0.87,0.09,0.3,1.96,-0.02,5.12,0.85,-0.77,0.87,0.31,0.07,0.27,1.64,-0.01,4.15,0.17,-0.54,2.05,0.06,0.13,0.37,2.59,0.08,7.09,0.14,-164.25,200.74,-2.65,1758.23,41.93,364.99,32123.02,9.28,1765.23,-223.33,86.91,-3.12,957.83,30.95,310.24,-22519.04,5.59,967.54,-171.26,136.72,0.08,3760.1,61.32,307.98,-138106.98,3.1,3760.11,-31.67,36.5,6.53,148.3,12.18,68.16,-67.17,2.43,190.93,0.0,84.07,54.39,338.14,18.39,84.07,290.56,1.86,3296.43,-19.01,54.55,22.75,569.15,23.86,73.56,-2514.19,1.58,1086.76
72.0,-0.38,1.58,0.87,0.09,0.3,1.96,-0.02,5.11,0.85,-0.77,0.87,0.31,0.07,0.27,1.64,-0.01,4.16,0.17,-0.54,2.05,0.05,0.13,0.37,2.59,0.08,7.11,0.14,-164.25,200.74,-2.12,1785.15,42.25,364.99,30726.37,9.01,1789.64,-223.33,86.91,-3.02,958.71,30.96,310.24,-22788.09,5.59,967.82,-171.26,136.72,0.08,3760.11,61.32,307.98,-138017.45,3.1,3760.12,-31.67,36.5,6.7,148.79,12.2,68.16,-130.28,2.42,193.71,0.0,84.07,54.81,343.07,18.52,84.07,90.38,1.84,3347.45,-19.01,54.55,23.02,556.27,23.59,73.56,-2467.27,1.6,1086.35
73.0,-0.38,1.58,0.87,0.09,0.31,1.96,-0.02,4.99,0.86,-0.77,0.87,0.31,0.07,0.27,1.64,-0.01,4.15,0.17,-0.54,2.05,0.05,0.13,0.37,2.59,0.08,7.15,0.14,-164.25,200.74,-2.14,1784.99,42.25,364.99,30806.83,9.01,1789.55,-223.33,86.91,-3.18,961.08,31.0,310.24,-22369.37,5.54,971.17,-171.26,136.72,0.62,3795.1,61.6,307.98,-142112.52,3.08,3795.48,-31.67,36.5,6.89,149.15,12.21,68.16,-197.06,2.42,196.62,0.0,84.07,55.22,347.48,18.64,84.07,-126.66,1.83,3396.75,-19.01,54.55,23.31,543.44,23.31,73.56,-2462.39,1.62,1087.03
74.0,-0.38,1.58,0.87,0.09,0.31,1.96,-0.02,4.94,0.86,-0.77,0.87,0.31,0.07,0.27,1.64,-0.01,4.07,0.17,-0.54,2.05,0.05,0.13,0.37,2.59,0.08,7.2,0.14,-164.25,200.74,-2.06,1787.25,42.28,364.99,30464.07,8.98,1791.5,-223.33,86.91,-3.26,961.63,31.01,310.24,-22125.42,5.53,972.28,-171.26,136.72,1.08,3826.0,61.85,307.98,-145540.91,3.05,3827.17,-31.67,36.5,7.23,153.53,12.39,68.16,-210.59,2.42,205.81,0.0,84.07,55.49,346.92,18.63,84.07,-356.11,1.84,3425.71,-19.01,54.55,23.56,530.78,23.04,73.56,-2324.2,1.64,1085.77
75.0,-0.38,1.58,0.87,0.09,0.31,1.96,-0.02,4.94,0.86,-0.77,0.87,0.32,0.07,0.27,1.64,-0.01,3.99,0.17,-0.54,2.05,0.04,0.13,0.37,2.59,0.09,7.31,0.14,-164.25,200.74,-1.99,1790.49,42.31,364.99,30179.37,8.95,1794.44,-223.33,86.91,-3.36,960.4,30.99,310.24,-21848.84,5.53,971.72,-171.26,136.72,0.68,3836.47,61.94,307.98,-141330.95,3.02,3836.93,-31.67,36.5,7.44,153.5,12.39,68.16,-283.72,2.43,208.82,0.0,84.07,55.85,350.29,18.72,84.07,-593.21,1.83,3470.05,-19.01,54.55,23.81,518.2,22.76,73.56,-2204.59,1.65,1085.04
76.0,-0.38,1.58,0.88,0.1,0.31,1.96,-0.02,4.81,0.87,-0.77,0.87,0.32,0.08,0.27,1.64,-0.01,3.92,0.18,-0.54,2.05,0.04,0.13,0.37,2.59,0.09,7.43,0.14,-164.25,200.74,-2.24,1792.35,42.34,364.99,31477.66,8.94,1797.36,-223.33,86.91,-3.43,960.74,31.0,310.24,-21650.37,5.52,972.53,-171.26,136.72,0.96,3853.14,62.07,307.98,-143771.31,3.01,3854.07,-31.67,36.5,7.61,152.15,12.33,68.16,-343.0,2.47,210.11,0.0,84.07,56.2,355.29,18.85,84.07,-801.42,1.81,3513.7,-19.01,54.55,24.11,505.01,22.47,73.56,-2173.42,1.68,1086.46
77.0,-0.38,1.58,0.88,0.1,0.31,1.96,-0.02,4.76,0.87,-0.77,0.87,0.32,0.08,0.27,1.64,-0.01,3.87,0.18,-0.54,2.05,0.04,0.13,0.36,2.59,0.09,7.57,0.13,-164.25,200.74,-1.83,1783.94,42.24,364.99,29606.5,9.01,1787.3,-223.33,86.91,-3.44,960.76,31.0,310.24,-21641.68,5.52,972.57,-171.26,136.72,1.41,3884.2,62.32,307.98,-147080.88,2.98,3886.18,-31.67,36.5,7.94,153.12,12.37,68.16,-404.98,2.48,216.08,0.0,84.07,56.45,354.97,18.84,84.07,-1027.39,1.82,3541.35,-19.01,54.55,24.35,492.54,22.19,73.56,-2016.7,1.69,1085.69
78.0,-0.38,1.58,0.88,0.1,0.31,1.96,-0.02,4.75,0.87,-0.77,0.87,0.32,0.08,0.28,1.64,-0.01,3.77,0.18,-0.54,2.05,0.03,0.13,0.36,2.59,0.09,7.74,0.13,-164.25,200.74,-1.86,1785.56,42.26,364.99,29695.61,8.99,1789.04,-223.33,86.91,-3.33,959.42,30.97,310.24,-21926.59,5.55,970.53,-171.26,136.72,0.43,4013.32,63.35,307.98,-150699.94,2.87,4013.51,-31.67,36.5,8.19,150.64,12.27,68.16,-461.55,2.54,217.67,0.0,84.07,56.85,354.9,18.84,84.07,-1293.26,1.84,3586.64,-19.01,54.55,24.58,480.87,21.93,73.56,-1869.55,1.7,1085.14
79.0,-0.38,1.58,0.88,0.1,0.31,1.96,-0.02,4.78,0.88,-0.77,0.87,0.32,0.08,0.28,1.64,-0.01,3.74,0.18,-0.54,2.05,0.03,0.13,0.36,2.59,0.09,8.01,0.13,-164.25,200.74,-2.08,1791.75,42.33,364.99,30720.75,8.94,1796.1,-223.33,86.91,-2.94,954.4,30.89,310.24,-22844.94,5.64,963.07,-171.26,136.72,0.51,4014.59,63.36,307.98,-151564.56,2.87,4014.84,-31.67,36.5,8.41,145.56,12.06,68.16,-447.68,2.62,216.35,0.0,84.07,57.34,352.55,18.78,84.07,-1507.55,1.86,3640.73,-19.01,54.55,24.8,471.28,21.71,73.56,-1845.85,1.72,1086.46
80.0,-0.38,1.58,0.88,0.1,0.31,1.96,-0.02,4.8,0.88,-0.77,0.87,0.32,0.08,0.28,1.64,-0.01,3.74,0.18,-0.54,2.05,0.02,0.13,0.36,2.59,0.09,8.14,0.13,-164.25,200.74,-2.58,1821.63,42.68,364.99,31755.45,8.69,1828.29,-223.33,86.91,-3.15,956.91,30.93,310.24,-22293.37,5.59,966.85,-171.26,136.72,1.17,4048.83,63.63,307.98,-157586.06,2.85,4050.21,-31.67,36.5,8.8,143.36,11.97,68.16,-462.09,2.65,220.79,0.0,84.07,57.74,345.4,18.58,84.07,-1670.41,1.9,3679.61,-19.01,54.55,24.98,463.2,21.52,73.56,-1795.55,1.74,1087.05
81.0,-0.38,1.58,0.89,0.1,0.31,1.96,-0.02,4.81,0.89,-0.77,0.87,0.32,0.08,0.28,1.64,-0.01,3.76,0.18,-0.54,2.05,0.02,0.13,0.36,2.59,0.09,8.36,0.13,-164.25,200.74,-2.15,1824.11,42.71,364.99,29617.18,8.65,1828.74,-223.33,86.91,-3.04,959.37,30.97,310.24,-22575.95,5.57,968.61,-171.26,136.72,0.07,4183.34,64.68,307.98,-159554.16,2.74,4183.34,-31.67,36.5,9.14,139.71,11.82,68.16,-478.51,2.71,223.26,0.0,84.07,58.23,338.0,18.38,84.07,-1798.65,1.93,3728.31,-19.01,54.55,25.16,455.17,21.33,73.56,-1780.6,1.77,1088.44
82.0,-0.38,1.58,0.89,0.1,0.31,1.96,-0.02,4.85,0.89,-0.77,0.87,0.32,0.08,0.28,1.64,-0.01,3.7,0.18,-0.54,2.05,0.01,0.13,0.36,2.59,0.1,8.75,0.13,-164.25,200.74,-2.02,1821.73,42.68,364.99,28954.48,8.67,1825.83,-223.33,86.91,-3.07,958.14,30.95,310.24,-22522.69,5.58,967.57,-171.26,136.72,-0.26,4187.42,64.71,307.98,-155564.84,2.72,4187.48,-31.67,36.5,9.38,134.5,11.6,68.16,-457.81,2.79,222.5,0.0,84.07,58.76,331.51,18.21,84.07,-1898.51,1.96,3783.87,-19.01,54.55,25.44,445.81,21.11,73.56,-1867.61,1.81,1093.19
83.0,-0.38,1.58,0.89,0.1,0.31,1.96,-0.02,4.91,0.89,-0.77,0.87,0.32,0.08,0.28,1.64,-0.01,3.75,0.18,-0.54,2.05,0.01,0.13,0.36,2.59,0.1,8.85,0.13,-164.25,200.74,-0.99,1986.76,44.57,364.99,45648.16,8.01,1987.75,-223.33,86.91,-3.68,1002.56,31.66,310.24,-23707.58,5.24,1016.13,-171.26,136.72,-0.02,4203.99,64.84,307.98,-157662.06,2.71,4203.99,-31.67,36.5,9.76,132.17,11.5,68.16,-460.48,2.83,227.49,0.0,84.07,59.14,324.06,18.0,84.07,-2025.99,2.01,3821.56,-19.01,54.55,25.79,434.02,20.83,73.56,-1915.57,1.85,1098.99
84.0,-0.38,1.58,0.89,0.1,0.31,1.96,-0.02,4.76,0.89,-0.77,0.87,0.31,0.08,0.28,1.64,-0.01,3.69,0.18,-0.54,2.05,0.01,0.13,0.36,2.59,0.1,8.71,0.13,-164.25,200.74,-1.0,1986.41,44.57,364.99,45684.16,8.01,1987.42,-223.33,86.91,-4.36,941.43,30.68,310.24,-26641.84,5.43,960.46,-171.26,136.72,0.13,4210.77,64.89,307.98,-159378.77,2.71,4210.78,-31.67,36.5,10.26,133.86,11.57,68.16,-352.57,2.92,239.06,0.0,84.07,59.36,316.31,17.79,84.07,-2007.65,2.06,3839.99,-19.01,54.55,26.05,421.83,20.54,73.56,-1794.37,1.87,1100.66
85.0,-0.38,1.58,0.89,0.1,0.31,1.96,-0.02,4.74,0.89,-0.77,0.87,0.31,0.08,0.28,1.64,-0.01,3.68,0.18,-0.54,2.05,0.02,0.13,0.36,2.59,0.1,8.38,0.13,-164.25,200.74,-2.96,2032.83,45.09,364.99,37857.88,7.95,2041.6,-223.33,137.45,-1.79,1002.78,31.67,360.78,9487.25,6.91,1005.99,-171.26,136.72,0.62,4202.77,64.83,307.98,-165171.92,2.73,4203.16,-31.67,36.5,10.66,133.08,11.54,68.16,-347.32,2.95,246.76,0.0,84.07,59.55,310.25,17.61,84.07,-2023.64,2.11,3856.51,-19.01,54.55,26.58,406.55,20.16,73.56,-1751.64,1.87,1113.0
86.0,-0.38,1.58,0.89,0.1,0.31,1.96,-0.02,4.78,0.89,-0.77,0.87,0.32,0.08,0.28,1.64,-0.01,3.63,0.18,-0.54,2.05,0.01,0.13,0.36,2.59,0.1,8.7,0.13,-164.25,200.74,-3.82,2111.52,45.95,364.99,36170.48,7.54,2126.08,-223.33,137.45,-3.08,1024.08,32.0,360.78,7765.43,6.84,1033.58,-171.26,136.72,0.7,4204.19,64.84,307.98,-166081.7,2.74,4204.68,-31.67,36.5,11.06,127.53,11.29,68.16,-288.88,2.95,249.81,0.0,84.07,59.98,305.37,17.47,84.07,-2180.31,2.17,3903.07,-19.01,54.55,26.98,391.31,19.78,73.56,-1631.75,1.89,1119.04
87.0,-0.38,1.58,0.9,0.1,0.31,1.96,-0.02,4.92,0.9,-0.77,0.87,0.31,0.08,0.28,1.64,-0.01,3.61,0.18,-0.54,2.05,0.0,0.12,0.35,2.59,0.1,9.46,0.12,-164.25,200.74,-3.94,2103.6,45.87,364.99,36563.31,7.59,2119.12,-223.33,137.45,-1.99,945.6,30.75,360.78,12025.49,7.22,949.56,-171.26,136.72,-0.65,4113.37,64.14,307.98,-159991.03,2.74,4113.79,-31.67,36.5,11.5,126.4,11.24,68.16,-243.49,2.96,258.56,0.0,84.07,60.1,306.34,17.5,84.07,-2275.7,2.17,3917.84,-19.01,54.55,27.25,373.75,19.33,73.56,-1046.23,1.77,1116.27
88.0,-0.38,1.58,0.9,0.09,0.3,1.96,-0.02,5.2,0.91,-0.77,0.87,0.31,0.08,0.28,1.64,-0.01,3.65,0.18,-0.54,2.05,-0.0,0.12,0.34,2.59,0.09,10.29,0.12,-164.25,200.74,-3.91,2105.91,45.89,364.99,36550.05,7.58,2121.22,-223.33,137.45,-1.92,950.62,30.83,360.78,12075.76,7.15,954.29,-171.26,136.72,-1.32,4110.08,64.11,307.98,-152467.08,2.72,4111.82,-31.67,36.5,11.79,124.63,11.16,68.16,-282.38,3.01,263.65,0.0,84.07,60.18,308.61,17.57,84.07,-2302.22,2.15,3929.91,-19.01,54.55,27.61,356.11,18.87,73.56,-684.01,1.71,1118.63
89.0,-0.38,1.58,0.91,0.09,0.3,1.96,-0.02,5.5,0.91,-0.77,0.87,0.31,0.08,0.28,1.64,-0.01,3.68,0.17,-0.54,2.05,-0.01,0.11,0.34,2.59,0.09,10.98,0.11,-164.25,200.74,-3.08,2163.1,46.51,364.99,35622.39,7.23,2172.61,-223.33,137.45,-1.67,932.64,30.54,360.78,12373.13,7.36,935.41,-171.26,136.72,-1.15,4119.37,64.18,307.98,-154220.14,2.72,4120.68,-31.67,36.5,12.09,122.93,11.09,68.16,-319.38,3.07,269.09,0.0,84.07,60.15,307.88,17.55,84.07,-2297.7,2.16,3926.36,-19.01,54.55,27.96,342.58,18.51,73.56,-546.66,1.7,1124.35
90.0,-0.38,1.58,0.91,0.09,0.29,1.96,-0.02,5.84,0.92,-0.77,0.87,0.31,0.08,0.28,1.64,-0.01,3.73,0.17,-0.54,2.05,-0.02,0.1,0.32,2.59,0.09,12.5,0.1,-164.25,200.74,-3.6,2209.9,47.01,364.99,35523.34,6.99,2222.88,-223.33,137.45,-1.51,925.89,30.43,360.78,12185.13,7.45,928.18,-171.26,136.72,-1.68,4133.1,64.29,307.98,-148234.95,2.68,4135.92,-31.67,36.5,12.52,122.67,11.08,68.16,-280.6,3.1,279.37,0.0,84.07,59.91,302.87,17.4,84.07,-2184.98,2.18,3891.66,-19.01,54.55,28.06,338.21,18.39,73.56,-503.72,1.7,1125.6
91.0,-0.38,1.58,0.92,0.08,0.29,1.96,-0.02,6.12,0.92,-0.77,0.87,0.31,0.08,0.28,1.64,-0.01,3.75,0.18,-0.54,2.05,-0.03,0.1,0.31,2.59,0.08,14.13,0.1,-164.25,200.74,-3.19,2232.96,47.25,364.99,33911.07,6.85,2243.13,-223.33,137.45,-1.28,938.15,30.63,360.78,12061.99,7.27,939.8,-171.26,136.72,-1.75,4129.48,64.26,307.98,-147541.08,2.69,4132.54,-31.67,36.5,12.79,119.57,10.93,68.16,-302.06,3.19,283.27,0.0,84.07,59.83,300.02,17.32,84.07,-2201.24,2.19,3879.92,-19.01,54.55,28.22,332.37,18.23,73.56,-487.02,1.72,1128.53
92.0,-0.38,1.58,0.93,0.07,0.26,1.96,0.0,2.96,0.93,-0.77,0.87,0.32,0.07,0.26,1.64,0.0,2.0,0.17,-0.54,2.05,-0.04,0.07,0.26,2.59,0.03,8.16,0.07,-164.25,200.74,-4.98,1820.33,42.67,364.99,-40985.28,4.99,1845.09,-223.33,137.45,-0.98,913.66,30.23,360.78,12738.88,7.54,914.61,-171.26,136.72,-0.91,4219.17,64.96,307.98,-149326.47,2.65,4220.0,-31.67,36.5,13.05,117.37,10.83,68.16,-337.33,3.28,287.56,0.0,84.07,59.71,295.66,17.19,84.07,-2219.39,2.2,3861.36,-19.01,54.55,28.35,327.69,18.1,73.56,-485.8,1.74,1131.26
93.0,-0.38,1.58,0.93,0.06,0.25,1.96,0.0,2.94,0.93,-0.77,0.87,0.33,0.07,0.26,1.64,0.0,2.02,0.17,-0.54,2.05,-0.05,0.05,0.23,2.59,0.02,7.65,0.06,-164.25,200.74,-5.27,1817.52,42.63,364.99,-39466.71,4.99,1845.28,-223.33,137.45,-1.82,878.61,29.64,360.78,12419.0,8.01,881.91,-171.26,136.72,-0.02,4148.53,64.41,307.98,-154535.81,2.74,4148.53,-31.67,36.5,13.37,116.19,10.78,68.16,-363.82,3.33,294.86,0.0,84.07,59.5,290.0,17.03,84.07,-2167.07,2.23,3830.09,-19.01,54.55,28.41,324.97,18.03,73.56,-450.6,1.75,1131.92
94.0,-0.38,1.58,0.94,0.06,0.24,1.96,0.0,2.83,0.94,-0.77,0.87,0.33,0.07,0.26,1.64,0.0,2.02,0.18,-0.54,2.05,-0.06,0.04,0.21,2.59,0.01,5.71,0.05,-164.25,200.74,-4.91,1836.02,42.85,364.99,-40602.41,4.92,1860.13,-223.33,137.45,-1.48,891.21,29.85,360.78,11989.62,7.78,893.41,-171.26,136.72,0.21,4142.11,64.36,307.98,-157201.7,2.76,4142.15,-31.67,36.5,13.65,109.61,10.47,68.16,-288.56,3.41,295.97,0.0,84.07,59.47,288.98,17.0,84.07,-2162.89,2.24,3825.21,-19.01,54.55,28.64,314.61,17.74,73.56,-305.49,1.74,1135.1
95.0,-0.38,1.58,0.95,0.06,0.24,1.96,0.0,2.65,0.96,-0.77,0.87,0.34,0.07,0.26,1.64,0.0,2.01,0.18,-0.54,2.05,-0.07,0.04,0.19,2.59,0.0,4.82,0.04,-164.25,200.74,-4.56,1772.0,42.1,364.99,-33724.48,4.95,1792.76,-223.33,137.45,-2.24,909.24,30.15,360.78,12625.07,7.59,914.27,-171.26,136.72,1.14,4087.56,63.93,307.98,-164288.36,2.85,4088.85,-31.67,36.5,14.02,97.89,9.89,68.16,1.64,2.85,294.39,0.0,84.07,59.49,289.43,17.01,84.07,-2182.03,2.23,3829.01,-19.01,54.55,29.05,299.04,17.29,73.56,-60.83,1.65,1142.72
96.0,-0.38,1.58,0.95,0.06,0.24,1.96,0.0,2.65,0.96,-0.77,0.87,0.34,0.07,0.26,1.64,0.0,2.01,0.18,-0.54,2.05,-0.07,0.04,0.19,2.59,0.0,5.07,0.04,-164.25,200.74,-4.4,1750.84,41.84,364.99,-32390.55,5.01,1770.2,-223.33,137.45,-2.44,917.24,30.29,360.78,12917.83,7.48,923.22,-171.26,136.72,2.23,4012.34,63.34,307.98,-170411.16,2.96,4017.31,-31.67,36.5,14.46,90.8,9.53,68.16,175.41,2.35,299.82,0.0,84.07,59.78,283.4,16.83,84.07,-2275.47,2.31,3857.4,-19.01,54.55,29.31,281.8,16.79,73.56,611.77,1.31,1140.69
97.0,-0.38,1.58,0.95,0.06,0.24,1.96,0.01,2.65,0.96,-0.77,1.08,0.34,0.07,0.27,1.86,0.0,2.32,0.19,-0.54,2.05,-0.07,0.04,0.19,2.59,0.0,4.98,0.04,-164.25,200.74,-1.26,1721.72,41.49,364.99,28529.44,4.71,1723.31,-223.33,137.45,-0.76,858.97,29.31,360.78,21901.91,7.2,859.55,-171.26,136.72,3.21,3827.13,61.86,307.98,-153431.98,3.01,3837.45,-31.67,36.5,14.68,90.17,9.5,68.16,144.25,2.34,305.79,0.0,84.07,60.4,258.77,16.09,84.07,-1450.58,1.85,3907.2,-19.01,54.55,29.37,279.45,16.72,73.56,620.63,1.31,1142.18
98.0,-0.38,1.58,0.95,0.06,0.23,1.96,0.01,2.7,0.95,-0.77,1.08,0.34,0.07,0.27,1.86,0.0,2.32,0.19,-0.54,2.05,-0.07,0.04,0.19,2.59,0.0,4.79,0.04,-164.25,200.74,-0.88,1681.37,41.0,364.99,29891.27,4.83,1682.14,-223.33,137.45,-0.92,861.16,29.35,360.78,22283.35,7.18,862.01,-171.26,136.72,2.62,3803.09,61.67,307.98,-147882.19,3.02,3809.94,-31.67,36.5,14.83,88.53,9.41,68.16,126.96,2.38,308.41,0.0,84.07,60.9,245.79,15.68,84.07,-1265.24,1.75,3954.55,-19.01,54.55,29.22,277.65,16.66,73.56,725.99,1.33,1131.23
99.0,-0.38,1.58,0.95,0.05,0.23,1.96,0.01,2.72,0.95,-0.77,1.08,0.34,0.07,0.27,1.86,0.0,2.33,0.19,-0.54,2.05,-0.07,0.04,0.19,2.59,0.0,4.63,0.04,-164.25,200.74,-1.36,1718.52,41.46,364.99,29899.67,4.7,1720.37,-223.33,137.45,-0.7,848.54,29.13,360.78,22290.51,7.34,849.03,-171.26,136.72,2.95,3827.36,61.87,307.98,-150341.27,3.0,3836.09,-31.67,36.5,15.16,85.36,9.24,68.16,153.6,2.28,315.15,0.0,84.07,61.26,236.98,15.39,84.07,-1248.16,1.77,3989.95,-19.01,54.55,28.86,277.35,16.65,73.56,909.65,1.34,1110.39
100.0,-0.38,1.59,0.95,0.06,0.24,1.97,0.01,2.9,0.96,-0.77,1.08,0.34,0.07,0.27,1.86,0.0,2.34,0.19,-0.54,2.05,-0.06,0.04,0.19,2.59,0.0,4.59,0.04,-164.25,200.74,-1.18,1723.21,41.51,364.99,29099.85,4.66,1724.61,-223.33,137.45,-0.23,882.29,29.7,360.78,23139.42,6.89,882.35,-171.26,136.72,2.47,3938.04,62.75,307.98,-164060.44,3.01,3944.15,-31.67,36.5,15.4,84.5,9.19,68.16,128.74,2.28,321.51,0.0,84.07,61.6,230.35,15.18,84.07,-1290.94,1.81,4024.9,-19.01,54.55,28.45,278.47,16.69,73.56,1075.33,1.37,1087.82
101.0,-0.38,1.59,0.95,0.06,0.24,1.97,0.01,3.02,0.95,-0.77,1.08,0.34,0.07,0.27,1.86,0.0,2.34,0.19,-0.54,2.05,-0.06,0.04,0.19,2.59,0.0,4.51,0.04,-164.25,200.74,-0.74,1712.6,41.38,364.99,27234.19,4.7,1713.16,-223.33,137.45,-0.08,885.2,29.75,360.78,22790.36,6.83,885.21,-171.26,136.72,2.23,3944.85,62.81,307.98,-161352.42,2.99,3949.82,-31.67,36.5,15.5,83.23,9.12,68.16,116.54,2.32,323.51,0.0,84.07,61.99,227.25,15.07,84.07,-1391.84,1.85,4070.04,-19.01,54.55,28.1,276.07,16.62,73.56,1246.97,1.39,1065.75
102.0,-0.38,1.59,0.95,0.06,0.24,1.97,0.01,3.01,0.95,-0.77,1.08,0.34,0.07,0.27,1.86,0.0,2.35,0.19,-0.54,2.05,-0.06,0.04,0.19,2.59,0.0,4.41,0.04,-164.25,200.74,-0.52,1713.51,41.39,364.99,26108.02,4.69,1713.78,-223.33,137.45,-0.14,888.75,29.81,360.78,22794.52,6.79,888.77,-171.26,136.72,2.53,4000.04,63.25,307.98,-157234.84,2.98,4006.43,-31.67,36.5,15.74,82.56,9.09,68.16,92.51,2.31,330.29,0.0,84.07,62.27,223.97,14.97,84.07,-1497.67,1.91,4101.56,-19.01,54.55,27.65,275.08,16.59,73.56,1388.53,1.42,1039.6
103.0,-0.38,1.59,0.95,0.06,0.24,1.97,0.01,3.07,0.96,-0.77,1.08,0.34,0.07,0.27,1.86,0.0,2.3,0.19,-0.54,2.05,-0.06,0.04,0.19,2.59,0.0,4.5,0.04,-164.25,200.74,0.41,1726.47,41.55,364.99,23448.71,4.61,1726.63,-223.33,137.45,0.62,927.09,30.45,360.78,23273.92,6.35,927.48,-171.26,136.72,2.71,3958.66,62.92,307.98,-152080.69,2.98,3965.98,-31.67,36.5,15.95,82.74,9.1,68.16,63.86,2.3,337.18,0.0,84.07,62.48,221.41,14.88,84.07,-1591.83,1.96,4125.33,-19.01,54.55,27.15,275.27,16.59,73.56,1491.2,1.46,1012.51
104.0,-0.38,1.59,0.95,0.06,0.25,1.97,0.01,3.06,0.96,-0.77,1.08,0.34,0.07,0.27,1.86,0.0,2.31,0.19,-0.54,2.05,-0.05,0.04,0.19,2.59,0.0,4.37,0.04,-164.25,200.74,0.77,1729.64,41.59,364.99,21703.91,4.58,1730.23,-223.33,137.45,0.86,933.37,30.55,360.78,22767.36,6.24,934.1,-171.26,136.72,1.65,3922.62,62.63,307.98,-143482.34,2.98,3925.35,-31.67,36.5,16.14,81.39,9.02,68.16,41.43,2.33,341.8,0.0,84.07,62.78,219.62,14.82,84.07,-1714.8,2.02,4161.14,-19.01,54.55,26.8,269.3,16.41,73.56,1593.46,1.49,987.71
105.0,-0.38,1.59,0.95,0.06,0.25,1.97,0.01,3.09,0.96,-0.77,1.08,0.34,0.07,0.27,1.86,0.0,2.32,0.19,-0.54,2.05,-0.05,0.04,0.2,2.59,0.0,4.27,0.04,-164.25,200.74,0.79,1728.74,41.58,364.99,21617.48,4.58,1729.37,-223.33,137.45,0.54,950.84,30.84,360.78,22860.1,6.08,951.14,-171.26,136.72,1.87,3946.38,62.82,307.98,-144021.95,2.96,3949.87,-31.67,36.5,16.33,82.15,9.06,68.16,14.41,2.3,348.96,0.0,84.07,63.03,216.31,14.71,84.07,-1806.69,2.09,4189.39,-19.01,54.55,26.4,265.25,16.29,73.56,1722.27,1.53,962.19
106.0,-0.38,1.59,0.95,0.06,0.25,1.97,0.01,3.09,0.96,-0.77,1.08,0.34,0.07,0.27,1.86,0.0,2.32,0.19,-0.54,2.05,-0.05,0.04,0.2,2.59,0.0,4.29,0.04,-164.25,200.74,0.67,1723.77,41.52,364.99,22073.6,4.61,1724.22,-223.33,137.45,0.9,968.25,31.12,360.78,22587.03,5.87,969.05,-171.26,136.72,2.11,3893.78,62.4,307.98,-138011.39,2.96,3898.21,-31.67,36.5,16.5,82.41,9.08,68.16,-14.7,2.29,354.56,0.0,84.07,63.23,214.07,14.63,84.07,-1896.95,2.16,4212.42,-19.01,54.55,25.86,265.24,16.29,73.56,1752.45,1.58,933.75
107.0,-0.38,1.59,0.95,0.06,0.25,1.97,0.01,3.08,0.96,-0.77,1.08,0.34,0.07,0.27,1.86,0.0,2.27,0.19,-0.54,2.05,-0.05,0.04,0.2,2.59,0.0,4.12,0.04,-164.25,200.74,0.61,1726.19,41.55,364.99,22351.13,4.6,1726.55,-223.33,137.45,0.7,969.33,31.13,360.78,23134.79,5.87,969.82,-171.26,136.72,2.45,3873.32,62.24,307.98,-140999.66,3.01,3879.31,-31.67,36.5,16.56,81.76,9.04,68.16,-25.38,2.32,356.09,0.0,84.07,63.66,208.39,14.44,84.07,-1915.67,2.22,4261.05,-19.01,54.55,25.38,262.65,16.21,73.56,1853.52,1.62,907.03
108.0,-0.38,1.59,0.95,0.06,0.25,1.97,0.01,3.1,0.96,-0.77,1.08,0.34,0.07,0.27,1.86,0.0,2.29,0.19,-0.54,2.05,-0.05,0.04,0.2,2.59,0.0,4.02,0.04,-164.25,200.74,0.88,1700.01,41.23,364.99,22876.1,4.69,1700.78,-223.33,137.45,0.61,972.3,31.18,360.78,23331.97,5.85,972.66,-171.26,136.72,2.43,3869.81,62.21,307.98,-141128.2,3.01,3875.69,-31.67,36.5,16.65,81.37,9.02,68.16,-44.62,2.35,358.74,0.0,84.07,63.92,204.49,14.3,84.07,-1988.96,2.31,4290.35,-19.01,54.55,24.8,262.44,16.2,73.56,1818.81,1.68,877.6
109.0,-0.38,1.59,0.95,0.06,0.25,1.97,0.01,3.1,0.96,-0.77,1.08,0.34,0.07,0.27,1.86,0.0,2.3,0.19,-0.54,2.05,-0.04,0.04,0.2,2.59,0.0,3.95,0.04,-164.25,200.74,0.91,1699.87,41.23,364.99,22699.21,4.69,1700.71,-223.33,137.45,0.72,979.21,31.29,360.78,23325.77,5.77,979.72,-171.26,136.72,2.47,3863.38,62.16,307.98,-141073.94,3.02,3869.5,-31.67,36.5,16.71,81.43,9.02,68.16,-57.48,2.34,360.62,0.0,84.07,64.07,201.86,14.21,84.07,-2036.41,2.38,4306.74,-19.01,54.55,24.16,265.1,16.28,73.56,1655.23,1.79,848.79
110.0,-0.38,1.59,0.95,0.06,0.25,1.97,0.01,3.09,0.96,-0.77,1.08,0.35,0.07,0.27,1.86,0.0,2.3,0.19,-0.54,2.05,-0.04,0.04,0.2,2.59,0.0,3.9,0.04,-164.25,200.74,0.51,1687.1,41.07,364.99,24267.4,4.77,1687.36,-223.33,137.45,0.83,983.13,31.35,360.78,23112.86,5.71,983.81,-171.26,136.72,2.48,3862.97,62.15,307.98,-141149.84,3.02,3869.13,-31.67,36.5,16.75,80.94,9.0,68.16,-64.02,2.37,361.62,0.0,84.07,64.31,199.98,14.14,84.07,-2136.29,2.46,4336.13,-19.01,54.55,23.56,264.62,16.27,73.56,1591.79,1.84,819.67
111.0,-0.38,1.59,0.94,0.06,0.25,1.97,0.01,3.16,0.95,-0.77,1.08,0.35,0.07,0.27,1.86,0.0,2.29,0.19,-0.54,2.05,-0.04,0.04,0.2,2.59,0.0,3.83,0.04,-164.25,200.74,0.35,1690.26,41.11,364.99,25045.63,4.76,1690.38,-223.33,137.45,0.78,987.4,31.42,360.78,23006.55,5.68,988.0,-171.26,136.72,2.21,3822.19,61.82,307.98,-142676.63,3.04,3827.09,-31.67,36.5,16.81,80.63,8.98,68.16,-76.89,2.39,363.33,0.0,84.07,64.57,195.35,13.98,84.07,-2183.34,2.58,4364.55,-19.01,54.55,22.94,264.76,16.27,73.56,1497.92,1.89,791.2
112.0,-0.38,1.59,0.95,0.06,0.24,1.97,0.01,3.18,0.96,-0.77,1.08,0.35,0.07,0.27,1.86,0.0,2.31,0.19,-0.54,2.05,-0.04,0.04,0.2,2.59,0.0,3.84,0.04,-164.25,200.74,0.51,1683.24,41.03,364.99,24443.27,4.79,1683.5,-223.33,137.45,1.66,962.2,31.02,360.78,22696.7,5.78,964.97,-171.26,136.72,1.57,3876.7,62.26,307.98,-139368.48,2.95,3879.16,-31.67,36.5,16.78,80.74,8.99,68.16,-68.14,2.38,362.18,0.0,84.07,64.72,191.21,13.83,84.07,-2181.31,2.68,4380.5,-19.01,54.55,22.3,272.03,16.49,73.56,1287.94,2.05,769.35
113.0,-0.38,1.59,0.95,0.06,0.24,1.97,0.01,3.16,0.96,-0.77,1.08,0.35,0.07,0.27,1.86,0.0,2.3,0.19,-0.54,2.05,-0.04,0.04,0.2,2.59,0.0,3.96,0.04,-164.25,200.74,-0.05,1714.47,41.41,364.99,25593.11,4.67,1714.48,-223.33,137.45,1.14,942.78,30.7,360.78,23288.55,6.03,944.09,-171.26,136.72,1.68,3877.5,62.27,307.98,-140638.64,2.95,3880.31,-31.67,36.5,16.75,81.04,9.0,68.16,-63.17,2.36,361.47,0.0,84.07,65.08,176.91,13.3,84.07,-1833.9,2.56,4412.35,-19.01,54.55,21.69,279.52,16.72,73.56,1152.02,2.17,749.9
114.0,-0.38,1.59,0.95,0.06,0.24,1.97,0.01,3.2,0.95,-0.77,1.08,0.34,0.07,0.27,1.86,0.0,2.33,0.19,-0.54,2.05,-0.04,0.04,0.2,2.59,0.0,3.94,0.04,-164.25,200.74,0.61,1704.34,41.28,364.99,23030.87,4.69,1704.71,-223.33,137.45,0.94,950.2,30.83,360.78,23628.46,5.96,951.09,-171.26,136.72,2.26,3955.15,62.89,307.98,-139150.19,2.91,3960.25,-31.67,36.5,16.74,81.09,9.0,68.16,-62.64,2.36,361.38,0.0,84.07,65.25,170.63,13.06,84.07,-1735.64,2.61,4428.13,-19.01,54.55,21.0,284.56,16.87,73.56,886.23,2.28,725.47
115.0,-0.38,1.59,0.95,0.06,0.24,1.97,0.01,3.19,0.96,-0.77,1.08,0.34,0.07,0.27,1.86,0.0,2.34,0.19,-0.54,2.05,-0.04,0.04,0.2,2.59,0.0,3.94,0.04,-164.25,200.74,-0.1,1651.36,40.64,364.99,22760.64,4.92,1651.37,-223.33,137.45,1.53,958.24,30.96,360.78,22535.21,5.82,960.59,-171.26,136.72,1.11,4004.05,63.28,307.98,-130807.66,2.82,4005.3,-31.67,36.5,16.62,82.42,9.08,68.16,-48.49,2.31,358.69,0.0,84.07,65.28,169.63,13.02,84.07,-1727.64,2.63,4431.24,-19.01,54.55,20.34,292.66,17.11,73.56,669.87,2.39,706.39
116.0,-0.38,1.59,0.94,0.06,0.25,1.97,0.01,3.2,0.95,-0.77,1.08,0.34,0.07,0.27,1.86,0.0,2.33,0.19,-0.54,2.05,-0.04,0.04,0.2,2.59,0.0,3.94,0.04,-164.25,200.74,-0.71,1609.38,40.12,364.99,23001.78,5.13,1609.88,-223.33,137.45,1.19,957.36,30.94,360.78,23417.01,5.87,958.78,-171.26,136.72,2.46,3916.82,62.58,307.98,-136469.39,2.94,3922.9,-31.67,36.5,16.57,82.95,9.11,68.16,-39.0,2.28,357.39,0.0,84.07,65.28,169.77,13.03,84.07,-1728.44,2.63,4430.77,-19.01,54.55,19.68,299.06,17.29,73.56,495.17,2.46,686.45
117.0,-0.38,1.59,0.94,0.06,0.25,1.97,0.01,3.2,0.95,-0.77,1.08,0.34,0.07,0.27,1.86,0.0,2.33,0.19,-0.54,2.05,-0.04,0.04,0.2,2.59,0.0,3.84,0.04,-164.25,200.74,0.03,1682.66,41.02,364.99,25775.51,4.87,1682.66,-223.33,137.45,0.94,964.83,31.06,360.78,23918.59,5.81,965.73,-171.26,136.72,3.29,3972.47,63.03,307.98,-141978.33,2.9,3983.27,-31.67,36.5,16.48,84.37,9.19,68.16,-37.36,2.24,356.02,0.0,84.07,65.32,168.23,12.97,84.07,-1707.84,2.65,4434.78,-20.42,54.55,19.0,306.63,17.51,74.98,252.27,2.55,667.55
118.0,-0.38,1.59,0.94,0.06,0.25,1.97,0.01,3.19,0.95,-0.77,1.08,0.35,0.07,0.27,1.86,0.0,2.34,0.19,-0.54,2.05,-0.04,0.04,0.2,2.59,0.0,3.87,0.04,-164.25,200.74,0.94,1621.01,40.26,364.99,26298.68,5.06,1621.89,-223.33,137.45,1.57,972.36,31.18,360.78,22780.88,5.67,974.82,-171.26,136.72,2.45,4015.17,63.37,307.98,-135094.27,2.83,4021.2,-31.67,36.5,16.3,88.93,9.43,68.16,-89.94,2.28,354.56,0.0,84.07,65.42,164.33,12.82,84.07,-1635.9,2.68,4443.51,-20.42,54.55,18.34,312.58,17.68,74.98,111.03,2.59,648.93
119.0,-0.38,1.59,0.94,0.06,0.25,1.97,0.01,3.19,0.95,-0.77,1.08,0.35,0.07,0.26,1.86,0.0,2.35,0.19,-0.54,2.05,-0.04,0.04,0.2,2.59,0.0,3.82,0.04,-164.25,200.74,0.51,1617.48,40.22,364.99,28159.43,5.1,1617.74,-223.33,137.45,1.02,974.97,31.22,360.78,23959.23,5.7,976.02,-171.26,136.72,2.94,4039.59,63.56,307.98,-139749.34,2.81,4048.24,-31.67,36.5,16.22,90.28,9.5,68.16,-89.45,2.25,353.51,0.0,84.07,65.47,162.1,12.73,84.07,-1597.25,2.7,4448.7,-20.42,54.55,17.67,315.82,17.77,74.98,-13.82,2.61,628.15
120.0,-0.38,1.59,0.94,0.06,0.25,1.97,0.01,3.21,0.95,-0.77,1.08,0.35,0.07,0.27,1.86,0.0,2.34,0.19,-0.54,2.05,-0.03,0.04,0.2,2.59,0.0,3.84,0.04,-164.25,200.74,0.15,1619.5,40.24,364.99,29773.07,5.1,1619.53,-223.33,137.45,0.86,974.64,31.22,360.78,24426.15,5.72,975.38,-171.26,136.72,3.39,4009.32,63.32,307.98,-143390.63,2.86,4020.79,-31.67,36.5,16.09,94.4,9.72,68.16,-153.56,2.31,353.3,0.0,84.07,65.57,158.21,12.58,84.07,-1519.96,2.72,4457.15,-20.42,54.55,17.02,318.71,17.85,74.98,-105.51,2.62,608.28
121.0,-0.38,1.59,0.94,0.06,0.25,1.97,0.01,3.25,0.95,-0.77,1.08,0.35,0.07,0.27,1.86,0.0,2.34,0.19,-0.54,2.05,-0.03,0.04,0.2,2.59,0.0,3.86,0.04,-164.25,200.74,0.63,1659.14,40.73,364.99,30156.24,4.9,1659.54,-223.33,137.45,1.04,982.26,31.34,360.78,24147.05,5.62,983.35,-171.26,136.72,2.22,4032.87,63.5,307.98,-133652.67,2.8,4037.82,-31.67,36.5,16.04,95.48,9.77,68.16,-159.27,2.28,352.88,0.0,84.07,65.55,159.03,12.61,84.07,-1543.16,2.73,4455.84,-20.42,54.55,16.36,321.94,17.94,74.98,-193.78,2.63,589.59
122.0,-0.38,1.59,0.95,0.06,0.25,1.97,0.01,3.18,0.96,-0.77,1.08,0.35,0.07,0.26,1.86,0.0,2.38,0.19,-0.54,2.05,-0.03,0.04,0.2,2.59,0.0,3.84,0.04,-164.25,200.74,0.53,1660.45,40.75,364.99,30660.73,4.9,1660.73,-223.33,137.45,0.71,993.63,31.52,360.78,24755.31,5.54,994.13,-171.26,141.97,3.4,4221.87,64.98,313.23,-121370.07,2.8,4233.43,-31.67,36.5,16.05,95.29,9.76,68.16,-158.38,2.29,352.96,0.0,84.07,65.54,159.38,12.62,84.07,-1552.04,2.73,4455.2,-20.42,54.55,15.69,325.53,18.04,74.98,-301.13,2.65,571.82
123.0,-0.38,1.59,0.95,0.06,0.25,1.97,0.01,3.08,0.97,-0.77,1.08,0.35,0.07,0.26,1.86,0.0,2.43,0.19,-0.54,2.05,-0.03,0.04,0.2,2.59,0.0,3.83,0.04,-164.25,200.74,0.1,1644.74,40.56,364.99,32130.73,5.01,1644.75,-223.33,137.45,0.89,1005.43,31.71,360.78,24771.41,5.42,1006.23,-171.26,141.97,2.56,4292.79,65.52,313.23,-116624.8,2.71,4299.36,-31.67,36.5,15.95,98.51,9.93,68.16,-209.18,2.32,352.96,0.0,84.07,65.63,155.12,12.45,84.07,-1424.69,2.66,4461.79,-21.07,54.55,15.04,330.24,18.17,75.62,-389.27,2.66,556.33
124.0,-0.38,1.59,0.95,0.06,0.25,1.97,0.01,3.08,0.97,-0.77,1.08,0.34,0.07,0.26,1.86,0.0,2.49,0.19,-0.54,2.05,-0.02,0.04,0.2,2.59,0.0,3.82,0.04,-164.25,200.74,0.87,1611.81,40.15,364.99,30567.45,5.13,1612.57,-223.33,137.45,1.76,1057.27,32.52,360.78,26042.21,5.08,1060.37,-171.26,141.97,1.94,4295.28,65.54,313.23,-109239.97,2.7,4299.05,-31.67,36.5,16.01,97.27,9.86,68.16,-207.67,2.36,353.68,0.0,84.07,65.72,149.47,12.23,84.07,-1222.7,2.46,4469.0,-21.07,54.55,14.4,335.1,18.31,75.62,-419.72,2.66,542.56
125.0,-0.38,1.59,0.95,0.06,0.25,1.97,0.01,3.09,0.97,-0.77,1.08,0.34,0.07,0.26,1.86,0.0,2.5,0.19,-0.54,2.05,-0.02,0.04,0.2,2.59,0.0,3.89,0.04,-164.25,200.74,1.29,1613.82,40.17,364.99,28747.53,5.1,1615.48,-223.33,137.45,1.65,1061.63,32.58,360.78,26250.56,5.05,1064.36,-171.26,141.97,3.06,4455.45,66.75,313.23,-103250.41,2.66,4464.83,-31.67,36.5,16.05,96.12,9.8,68.16,-193.94,2.36,353.8,0.0,84.07,65.8,145.16,12.05,84.07,-1086.3,2.33,4475.41,-23.82,54.55,13.72,340.43,18.45,78.37,-546.03,2.67,528.78
126.0,-0.38,1.59,0.95,0.06,0.25,1.97,0.01,3.07,0.97,-0.77,1.08,0.34,0.07,0.26,1.86,0.0,2.49,0.18,-0.54,2.05,-0.02,0.04,0.2,2.59,0.0,4.03,0.04,-164.25,200.74,1.19,1609.82,40.12,364.99,29068.34,5.12,1611.25,-223.33,137.45,2.01,1072.11,32.74,360.78,25454.3,4.93,1076.15,-171.26,141.97,2.86,4494.35,67.04,313.23,-106127.56,2.65,4502.52,-31.67,36.5,16.03,96.74,9.84,68.16,-202.37,2.36,353.76,0.0,84.07,65.86,142.64,11.94,84.07,-1019.53,2.28,4479.92,-24.19,54.55,13.05,345.39,18.58,78.75,-655.97,2.68,515.58
127.0,-0.38,1.59,0.95,0.06,0.25,1.97,0.01,3.06,0.97,-0.77,1.08,0.34,0.07,0.26,1.86,0.0,2.49,0.18,-0.54,2.05,-0.02,0.04,0.19,2.59,0.0,4.18,0.04,-164.25,200.74,1.24,1609.74,40.12,364.99,28827.05,5.12,1611.28,-223.33,137.45,1.93,1073.49,32.76,360.78,25680.12,4.92,1077.23,-171.26,141.97,2.89,4497.75,67.07,313.23,-106212.42,2.65,4506.09,-31.67,36.5,16.07,95.56,9.78,68.16,-189.54,2.37,353.94,0.0,84.07,65.9,140.71,11.86,84.07,-968.84,2.25,4483.38,-24.57,54.55,12.34,348.22,18.66,79.13,-807.46,2.68,500.5
128.0,-0.38,1.59,0.95,0.06,0.25,1.97,0.01,3.04,0.97,-0.77,1.08,0.34,0.06,0.25,1.86,0.0,2.51,0.18,-0.54,2.05,-0.01,0.04,0.19,2.59,0.0,4.2,0.04,-164.25,200.74,1.28,1609.88,40.12,364.99,28633.07,5.12,1611.53,-223.33,137.45,1.98,1072.78,32.75,360.78,25553.74,4.93,1076.68,-171.26,141.97,2.44,4478.32,66.92,313.23,-101037.65,2.66,4484.27,-31.67,36.5,16.14,93.62,9.68,68.16,-159.99,2.36,353.96,0.0,84.07,66.01,136.39,11.68,84.07,-886.3,2.22,4493.76,-24.57,54.55,11.65,350.15,18.71,79.13,-907.9,2.67,485.9
129.0,-0.38,1.59,0.95,0.06,0.25,1.97,0.01,3.02,0.97,-0.77,1.15,0.35,0.07,0.26,1.92,0.01,2.92,0.19,-0.54,2.05,-0.01,0.03,0.19,2.59,0.0,4.37,0.04,-164.25,200.74,1.72,1630.28,40.38,364.99,27425.86,4.99,1633.25,-223.33,137.45,2.05,1071.67,32.74,360.78,25341.97,4.93,1075.85,-171.26,141.97,2.42,4480.0,66.93,313.23,-100817.35,2.65,4485.84,-31.67,36.5,16.26,91.23,9.55,68.16,-156.31,2.42,355.68,0.0,84.07,65.98,137.54,11.73,84.07,-900.82,2.22,4490.38,-24.57,54.55,11.01,350.11,18.71,79.13,-897.45,2.65,471.29
130.0,-0.38,1.59,0.96,0.06,0.25,1.97,0.01,3.01,0.98,-0.77,1.15,0.35,0.07,0.26,1.92,0.01,2.95,0.19,-0.54,2.05,-0.01,0.04,0.19,2.59,0.0,4.24,0.04,-164.25,200.74,2.77,1613.16,40.16,364.99,25402.53,5.02,1620.82,-223.33,137.45,2.06,1072.05,32.74,360.78,25286.89,4.92,1076.31,-171.26,141.97,3.56,4640.34,68.12,313.23,-95797.86,2.62,4652.99,-31.67,36.5,16.31,90.2,9.5,68.16,-153.73,2.45,356.29,0.0,84.07,65.9,139.58,11.81,84.07,-912.16,2.18,4482.49,-24.57,54.55,10.34,349.65,18.7,79.13,-933.23,2.63,456.64
131.0,-0.38,1.59,0.96,0.06,0.25,1.97,0.01,3.01,0.98,-0.77,1.15,0.35,0.07,0.26,1.92,0.01,2.94,0.19,-0.54,2.05,-0.01,0.04,0.19,2.59,0.0,4.28,0.04,-164.25,200.74,2.91,1614.46,40.18,364.99,24709.79,5.0,1622.95,-223.33,137.45,2.24,1066.51,32.66,360.78,24849.6,4.96,1071.55,-171.26,141.97,2.21,4740.24,68.85,313.23,-88506.84,2.54,4745.11,-31.67,36.5,16.31,90.29,9.5,68.16,-152.86,2.45,356.16,0.0,84.07,65.79,143.75,11.99,84.07,-992.02,2.2,4472.58,-24.57,54.55,9.66,346.85,18.62,79.13,-1036.43,2.59,440.09
132.0,-0.38,1.59,0.96,0.06,0.25,1.97,0.01,3.01,0.98,-0.77,1.15,0.35,0.07,0.27,1.92,0.01,2.85,0.2,-0.54,2.05,-0.0,0.04,0.19,2.59,0.0,4.36,0.04,-164.25,200.74,3.0,1612.85,40.16,364.99,24317.27,5.01,1621.85,-223.33,137.45,1.61,1092.58,33.05,360.78,25464.13,4.84,1095.17,-171.26,141.97,3.56,4707.04,68.61,313.23,-100879.13,2.58,4719.73,-31.67,36.5,16.3,90.34,9.5,68.16,-150.73,2.45,355.93,0.0,84.07,65.74,145.27,12.05,84.07,-1005.19,2.18,4467.52,-24.57,54.55,8.99,344.36,18.56,79.13,-1082.79,2.56,425.25
133.0,-0.38,1.59,0.95,0.06,0.25,1.97,0.01,2.97,0.97,-0.77,1.15,0.34,0.07,0.27,1.92,0.01,2.87,0.19,-0.54,2.05,-0.0,0.03,0.18,2.59,0.0,4.51,0.03,-164.25,200.74,1.93,1664.7,40.8,364.99,24635.74,4.87,1668.43,-223.33,137.45,1.02,1102.47,33.2,360.78,26764.12,4.82,1103.52,-171.26,141.97,3.16,4686.67,68.46,313.23,-96120.71,2.6,4696.65,-31.67,36.5,16.24,92.2,9.6,68.16,-176.44,2.45,355.78,0.0,84.07,65.66,147.79,12.16,84.07,-1028.78,2.15,4459.29,-24.57,54.55,8.3,341.16,18.47,79.13,-1217.9,2.51,410.04
134.0,-0.38,1.59,0.95,0.06,0.25,1.97,0.01,2.98,0.97,-0.77,1.15,0.35,0.07,0.27,1.92,0.01,2.84,0.19,-0.54,2.05,0.0,0.03,0.19,2.59,0.0,4.35,0.03,-164.25,200.74,2.32,1701.9,41.25,364.99,25514.66,4.71,1707.27,-223.33,137.45,1.51,1109.64,33.31,360.78,25526.7,4.72,1111.91,-171.26,141.97,2.61,4674.36,68.37,313.23,-88999.03,2.6,4681.16,-31.67,36.5,16.23,92.24,9.6,68.16,-176.16,2.45,355.73,0.0,84.07,65.62,149.26,12.22,84.07,-1054.68,2.15,4455.8,-24.57,54.55,7.62,334.74,18.3,79.13,-1363.32,2.44,392.77
135.0,-0.38,1.59,0.96,0.06,0.25,1.97,0.01,2.93,0.98,-0.77,1.15,0.35,0.07,0.27,1.92,0.01,2.81,0.19,-0.54,2.05,0.01,0.03,0.18,2.59,0.0,4.45,0.03,-164.25,200.74,3.08,1679.79,40.99,364.99,23240.93,4.79,1689.26,-223.33,137.45,1.21,1112.09,33.35,360.78,26424.93,4.73,1113.56,-171.26,141.97,4.24,4615.64,67.94,313.23,-99271.18,2.66,4633.64,-31.67,36.5,16.21,92.63,9.62,68.16,-172.94,2.43,355.25,0.0,84.07,65.57,151.02,12.29,84.07,-1071.7,2.13,4450.23,-24.57,54.55,6.96,328.11,18.11,79.13,-1478.28,2.37,376.5
136.0,-0.38,1.59,0.95,0.07,0.26,1.97,0.01,2.91,0.97,-0.77,1.15,0.34,0.07,0.27,1.92,0.01,2.82,0.19,-0.54,2.05,0.01,0.03,0.18,2.59,0.0,4.55,0.03,-164.25,200.74,3.83,1737.66,41.69,364.99,23779.58,4.56,1752.34,-223.33,137.45,1.29,1111.01,33.33,360.78,26180.88,4.73,1112.67,-171.26,141.97,4.34,4624.03,68.0,313.23,-100104.38,2.65,4642.88,-31.67,36.5,16.15,94.3,9.71,68.16,-197.74,2.43,355.2,0.0,84.07,65.35,157.33,12.54,84.07,-1137.09,2.09,4428.6,-24.57,54.55,6.32,321.53,17.93,79.13,-1551.7,2.3,361.48
137.0,-0.38,1.59,0.96,0.06,0.25,1.97,0.01,2.96,0.98,-0.77,1.15,0.35,0.08,0.27,1.92,0.01,2.72,0.2,-0.54,2.05,0.02,0.03,0.18,2.59,0.0,4.43,0.03,-164.25,200.74,4.4,1776.07,42.14,364.99,23160.29,4.4,1795.47,-223.33,137.45,2.19,1089.6,33.01,360.78,25423.72,4.76,1094.41,-171.26,141.97,3.99,4617.99,67.96,313.23,-95449.21,2.65,4633.93,-31.67,36.5,16.01,95.43,9.77,68.16,-170.49,2.38,351.63,0.0,84.07,65.37,156.53,12.51,84.07,-1121.27,2.09,4430.31,-24.57,54.55,5.67,314.18,17.73,79.13,-1672.9,2.21,346.39
138.0,-0.38,1.59,0.96,0.07,0.26,1.97,0.01,2.88,0.99,-0.77,1.15,0.35,0.08,0.28,1.92,0.01,2.7,0.2,-0.54,2.05,0.02,0.03,0.18,2.59,0.0,4.32,0.03,-164.25,200.74,4.14,1794.43,42.36,364.99,23557.7,4.33,1811.58,-223.33,137.45,1.32,1057.23,32.52,360.78,25667.55,5.01,1058.97,-171.26,141.97,5.42,4554.45,67.49,313.23,-105696.66,2.72,4583.79,-31.67,36.5,15.94,95.85,9.79,68.16,-155.3,2.36,350.05,0.0,84.07,65.35,157.01,12.53,84.07,-1120.3,2.08,4428.14,-24.57,54.55,5.03,304.48,17.45,79.13,-1862.82,2.07,329.74
139.0,-0.38,1.59,0.95,0.07,0.26,1.97,0.01,2.87,0.98,-0.77,1.15,0.35,0.08,0.28,1.92,0.01,2.7,0.2,-0.54,2.05,0.02,0.03,0.18,2.59,0.0,4.42,0.03,-164.25,200.74,4.17,1794.7,42.36,364.99,23415.13,4.33,1812.07,-223.33,137.45,1.6,1058.66,32.54,360.78,24827.71,4.97,1061.23,-171.26,141.97,4.85,4506.61,67.13,313.23,-101523.21,2.75,4530.16,-31.67,36.5,15.95,95.62,9.78,68.16,-154.12,2.36,350.14,0.0,84.07,65.17,159.54,12.63,84.07,-1076.25,2.01,4407.26,-24.57,54.55,4.39,296.35,17.21,79.13,-2015.95,1.93,315.59
140.0,-0.38,1.59,0.96,0.07,0.26,1.97,0.01,2.88,0.98,-0.77,1.15,0.35,0.08,0.28,1.92,0.01,2.67,0.2,-0.54,2.05,0.03,0.03,0.18,2.59,0.0,4.48,0.03,-164.25,200.74,5.07,1783.23,42.23,364.99,20520.42,4.34,1808.97,-223.33,137.45,2.54,1037.1,32.2,360.78,24304.84,5.0,1043.54,-171.26,141.97,3.87,4499.54,67.08,313.23,-90669.88,2.74,4514.53,-31.67,36.5,15.78,94.51,9.72,68.16,-122.83,2.39,343.45,0.0,84.07,65.13,160.47,12.67,84.07,-1066.57,1.98,4401.86,-24.57,54.55,3.8,289.09,17.0,79.13,-2072.84,1.81,303.53
141.0,-0.38,1.59,0.95,0.06,0.25,1.97,0.01,2.85,0.97,-0.77,1.15,0.36,0.08,0.28,1.92,0.01,2.68,0.21,-0.54,2.05,0.04,0.03,0.18,2.59,0.0,4.47,0.03,-164.25,200.74,5.35,1770.84,42.08,364.99,19512.11,4.39,1799.47,-223.33,137.45,2.38,1032.47,32.13,360.78,24686.41,5.05,1038.13,-171.26,141.97,5.58,4212.81,64.91,313.23,-64416.05,2.69,4243.93,-31.67,36.5,15.66,94.39,9.72,68.16,-93.31,2.39,339.57,0.0,84.07,64.91,160.74,12.68,84.07,-988.51,1.95,4374.56,-24.57,54.55,3.33,287.6,16.96,79.13,-1929.59,1.77,298.69
142.0,-0.38,1.59,0.95,0.06,0.25,1.97,0.01,2.87,0.96,-0.77,1.15,0.35,0.08,0.28,1.92,0.01,2.66,0.2,-0.54,2.05,0.04,0.03,0.18,2.59,0.0,4.59,0.03,-164.25,200.74,5.06,1785.27,42.25,364.99,20470.72,4.34,1810.87,-223.33,137.45,1.75,1045.47,32.33,360.78,25825.06,5.01,1048.52,-171.26,141.97,5.83,4208.47,64.87,313.23,-67451.3,2.7,4242.41,-31.67,36.5,15.61,95.51,9.77,68.16,-96.82,2.36,339.06,0.0,84.07,64.56,159.73,12.64,84.07,-931.85,1.89,4327.59,-24.57,54.55,2.93,289.66,17.02,79.13,-1752.16,1.73,298.23
143.0,-0.38,1.59,0.95,0.06,0.25,1.97,0.01,2.88,0.96,-0.77,1.15,0.36,0.08,0.28,1.92,0.01,2.66,0.21,-0.54,2.05,0.05,0.03,0.18,2.59,0.0,4.68,0.03,-164.25,200.74,5.39,1796.71,42.39,364.99,19087.29,4.28,1825.75,-223.33,137.45,2.23,1039.89,32.25,360.78,24646.49,5.02,1044.85,-171.26,141.97,5.68,4211.72,64.9,313.23,-65717.77,2.7,4244.02,-31.67,36.5,15.45,94.67,9.73,68.16,-64.96,2.38,333.3,0.0,84.07,64.35,161.46,12.71,84.07,-865.79,1.84,4302.99,-24.57,54.55,2.47,287.58,16.96,79.13,-1604.38,1.69,293.67
144.0,-0.38,1.59,0.95,0.06,0.25,1.97,0.01,2.85,0.97,-0.77,1.15,0.36,0.08,0.28,1.92,0.01,2.66,0.21,-0.54,2.05,0.05,0.03,0.17,2.59,0.0,4.16,0.03,-164.25,200.74,5.94,1784.58,42.24,364.99,16760.3,4.32,1819.81,-223.33,137.45,2.14,1043.68,32.31,360.78,24777.53,4.99,1048.27,-171.26,141.97,7.29,4122.94,64.21,313.23,-71736.51,2.77,4176.16,-31.67,36.5,15.4,94.92,9.74,68.16,-52.74,2.37,332.09,0.0,84.07,64.1,159.62,12.63,84.07,-794.37,1.82,4268.17,-24.57,54.55,2.13,289.78,17.02,79.13,-1419.13,1.65,294.33
145.0,-0.38,1.59,0.95,0.06,0.25,1.97,0.01,2.87,0.96,-0.77,1.15,0.36,0.08,0.28,1.92,0.01,2.68,0.21,-0.54,2.05,0.06,0.03,0.17,2.59,0.0,4.21,0.03,-164.25,200.74,5.94,1784.58,42.24,364.99,16760.3,4.32,1819.81,-223.33,137.45,1.97,1045.72,32.34,360.78,25289.66,4.99,1049.61,-171.26,141.97,6.76,4065.81,63.76,313.23,-70186.6,2.81,4111.56,-31.67,36.5,15.29,96.2,9.81,68.16,-36.18,2.32,330.04,0.0,84.07,63.78,159.67,12.64,84.07,-721.31,1.79,4228.1,-24.57,54.55,1.77,292.36,17.1,79.13,-1235.49,1.62,295.5
146.0,-0.38,1.59,0.94,0.06,0.25,1.97,0.01,2.84,0.95,-0.77,1.15,0.37,0.08,0.28,1.92,0.01,2.72,0.21,-0.54,2.05,0.06,0.03,0.17,2.59,0.0,4.25,0.03,-164.25,200.74,5.54,1796.82,42.39,364.99,18434.36,4.27,1827.54,-223.33,137.45,2.26,1052.38,32.44,360.78,24558.21,4.9,1057.48,-171.26,141.97,6.53,4086.2,63.92,313.23,-68629.51,2.78,4128.79,-31.67,36.5,15.08,93.71,9.68,68.16,-21.56,2.36,321.1,0.0,84.07,63.7,160.31,12.66,84.07,-685.75,1.76,4217.92,-24.57,54.55,1.41,294.11,17.15,79.13,-1041.53,1.6,296.11
147.0,-0.38,1.59,0.95,0.06,0.25,1.97,0.01,2.82,0.96,-0.77,1.15,0.37,0.08,0.28,1.92,0.01,2.68,0.21,-0.54,2.05,0.06,0.03,0.17,2.59,0.0,4.32,0.03,-164.25,200.74,5.49,1795.77,42.38,364.99,18694.41,4.28,1825.93,-223.33,137.45,1.89,1058.47,32.53,360.78,25533.39,4.89,1062.03,-171.26,141.97,7.58,4097.47,64.01,313.23,-78558.21,2.79,4154.95,-31.67,36.5,15.1,93.61,9.68,68.16,-25.66,2.36,321.49,0.0,84.07,63.44,158.22,12.58,84.07,-618.02,1.75,4182.62,-24.57,54.55,1.04,295.87,17.2,79.13,-847.65,1.58,296.95
148.0,-0.38,1.59,0.94,0.06,0.25,1.97,0.01,2.85,0.95,-0.77,1.15,0.37,0.08,0.28,1.92,0.01,2.67,0.21,-0.54,2.05,0.06,0.03,0.16,2.59,0.0,4.47,0.03,-164.25,200.74,5.65,1798.4,42.41,364.99,17901.28,4.26,1830.28,-223.33,137.45,2.13,1058.1,32.53,360.78,24800.09,4.87,1062.63,-171.26,141.97,6.61,3976.33,63.06,313.23,-80441.27,2.85,4020.05,-31.67,36.5,15.01,94.49,9.72,68.16,-9.95,2.33,319.8,0.0,84.07,63.07,159.38,12.62,84.07,-568.57,1.72,4137.57,-24.57,54.55,0.65,297.9,17.26,79.13,-656.03,1.56,298.32
149.0,-0.38,1.59,0.94,0.06,0.25,1.97,0.01,2.86,0.96,-0.77,1.15,0.37,0.08,0.28,1.92,0.01,2.66,0.21,-0.54,2.05,0.07,0.03,0.16,2.59,0.0,4.47,0.03,-164.25,200.74,5.74,1796.3,42.38,364.99,17431.82,4.27,1829.25,-223.33,137.45,2.19,1057.59,32.52,360.78,24618.06,4.87,1062.37,-171.26,141.97,6.26,3997.84,63.23,313.23,-77382.6,2.81,4037.08,-31.67,36.5,14.83,91.91,9.59,68.16,-1.99,2.38,311.85,0.0,84.07,62.94,160.01,12.65,84.07,-514.32,1.7,4121.91,-24.57,54.55,0.36,300.46,17.33,79.13,-472.45,1.54,300.59
150.0,-0.38,1.59,0.95,0.06,0.25,1.97,0.01,2.8,0.96,-0.77,1.15,0.37,0.08,0.28,1.92,0.01,2.65,0.22,-0.54,2.05,0.07,0.03,0.16,2.59,0.0,4.61,0.03,-164.25,200.74,5.22,1786.31,42.26,364.99,19737.69,4.32,1813.54,-223.33,137.45,1.94,1056.6,32.51,360.78,25349.62,4.9,1060.38,-171.26,141.97,7.04,4000.4,63.25,313.23,-85520.88,2.83,4049.97,-31.67,36.5,14.83,91.89,9.59,68.16,-2.42,2.38,311.9,0.0,84.07,62.61,158.09,12.57,84.07,-456.75,1.67,4077.92,-24.57,54.55,-0.01,300.71,17.34,79.13,-265.59,1.53,300.71
151.0,-0.38,1.59,0.94,0.06,0.25,1.97,0.01,2.79,0.94,-0.77,1.15,0.37,0.08,0.28,1.92,0.01,2.64,0.21,-0.54,2.05,0.08,0.02,0.15,2.59,0.0,4.16,0.03,-164.25,200.74,5.38,1785.38,42.25,364.99,18895.26,4.32,1814.31,-223.33,137.45,1.91,1059.04,32.54,360.78,25339.79,4.88,1062.68,-171.26,141.97,6.74,3963.96,62.96,313.23,-85344.55,2.85,4009.41,-31.67,36.5,14.75,93.21,9.65,68.16,2.59,2.34,310.82,0.0,84.07,62.25,156.2,12.5,84.07,-409.63,1.64,4031.47,-24.57,54.55,-0.42,301.2,17.36,79.13,-66.25,1.53,301.37
152.0,-0.38,1.59,0.94,0.06,0.25,1.97,0.01,2.78,0.95,-0.77,1.15,0.38,0.08,0.28,1.92,0.01,2.6,0.22,-0.54,2.05,0.08,0.02,0.15,2.59,0.0,3.97,0.03,-164.25,200.74,5.5,1787.25,42.28,364.99,18247.3,4.31,1817.54,-223.33,137.45,2.79,1086.24,32.96,360.78,24836.67,4.67,1094.0,-171.26,141.97,5.39,4047.23,63.62,313.23,-79121.75,2.77,4076.27,-31.67,36.5,14.49,91.06,9.54,68.16,16.54,2.35,300.97,0.0,84.07,62.11,157.25,12.54,84.07,-356.47,1.61,4015.06,-24.57,54.55,-0.72,303.64,17.43,79.13,124.95,1.52,304.16
153.0,-0.38,1.59,0.94,0.06,0.25,1.97,0.01,2.84,0.95,-0.77,1.15,0.38,0.08,0.28,1.92,0.01,2.69,0.22,-0.54,2.05,0.08,0.02,0.15,2.59,0.0,3.94,0.03,-164.25,200.74,4.72,1751.48,41.85,364.99,19975.75,4.46,1773.78,-223.33,137.45,2.38,1075.68,32.8,360.78,25786.98,4.78,1081.32,-171.26,141.97,6.5,3882.09,62.31,313.23,-70528.03,2.84,3924.35,-31.67,36.5,14.4,91.4,9.56,68.16,38.44,2.34,298.7,0.0,84.07,61.85,154.65,12.44,84.07,-298.43,1.61,3980.55,-24.57,54.55,-1.03,305.18,17.47,79.13,326.89,1.51,306.23
154.0,-0.38,1.59,0.94,0.06,0.25,1.97,0.01,2.88,0.94,-0.77,1.15,0.38,0.08,0.28,1.92,0.01,2.65,0.22,-0.54,2.05,0.09,0.02,0.15,2.59,0.0,3.83,0.03,-164.25,200.74,4.79,1746.93,41.8,364.99,19860.88,4.48,1769.87,-223.33,137.45,2.12,1087.74,32.98,360.78,26148.48,4.71,1092.23,-171.26,141.97,6.49,3880.63,62.29,313.23,-70489.38,2.84,3922.73,-31.67,36.5,14.34,92.16,9.6,68.16,45.39,2.31,297.87,0.0,84.07,61.57,151.69,12.32,84.07,-248.26,1.6,3942.73,-24.57,54.55,-1.33,306.04,17.49,79.13,532.04,1.52,307.8
155.0,-0.38,1.59,0.94,0.06,0.25,1.97,0.01,2.86,0.95,-0.77,1.15,0.38,0.08,0.28,1.92,0.01,2.69,0.22,-0.54,2.05,0.09,0.02,0.15,2.59,0.0,3.81,0.03,-164.25,200.74,5.49,1752.41,41.86,364.99,17080.0,4.44,1782.51,-223.33,137.45,2.94,1138.21,33.74,360.78,27115.57,4.44,1146.87,-171.26,141.97,4.73,4040.58,63.57,313.23,-74115.31,2.78,4062.92,-31.67,36.5,14.1,92.42,9.61,68.16,76.47,2.31,291.21,0.0,84.07,61.38,153.84,12.4,84.07,-196.14,1.57,3921.29,-24.57,54.55,-1.59,308.01,17.55,79.13,716.97,1.51,310.53
156.0,-0.38,1.59,0.93,0.06,0.24,1.97,0.01,2.89,0.93,-0.77,1.15,0.39,0.08,0.27,1.92,0.01,2.68,0.22,-0.54,2.05,0.09,0.02,0.15,2.59,0.0,3.83,0.03,-164.25,200.74,5.9,1745.55,41.78,364.99,15158.46,4.46,1780.4,-223.33,137.45,3.15,1152.64,33.95,360.78,27206.54,4.35,1162.54,-171.26,141.97,6.02,3750.6,61.24,313.23,-35193.45,2.56,3786.88,-31.67,36.5,14.07,92.5,9.62,68.16,83.12,2.31,290.59,0.0,84.07,61.22,152.66,12.36,84.07,-139.01,1.59,3900.34,-24.57,54.55,-1.82,308.62,17.57,79.13,899.89,1.51,311.93
157.0,-0.38,1.59,0.93,0.06,0.24,1.97,0.01,2.91,0.93,-0.77,1.15,0.39,0.07,0.27,1.92,0.01,2.72,0.23,-0.54,2.05,0.09,0.02,0.15,2.59,0.0,3.83,0.03,-164.25,200.74,5.52,1797.28,42.39,364.99,11740.87,4.38,1827.8,-223.33,137.45,2.48,1205.0,34.71,360.78,25755.8,4.22,1211.13,-171.26,141.97,7.01,3758.42,61.31,313.23,-43874.87,2.56,3807.62,-31.67,36.5,14.17,90.02,9.49,68.16,107.97,2.32,290.78,0.0,84.07,61.0,151.05,12.29,84.07,-73.94,1.6,3871.56,-24.57,54.55,-2.19,306.54,17.51,79.13,1106.18,1.54,311.32
158.0,-0.38,1.59,0.94,0.06,0.24,1.97,0.01,2.86,0.93,-0.77,1.15,0.39,0.07,0.27,1.92,0.01,2.67,0.22,-0.54,2.05,0.09,0.02,0.15,2.59,0.0,3.87,0.03,-164.25,200.74,5.94,1794.5,42.36,364.99,9710.14,4.39,1829.74,-223.33,137.45,3.35,1258.57,35.48,360.78,26657.24,4.0,1269.8,-171.26,141.97,5.01,3751.07,61.25,313.23,-41504.95,2.54,3776.13,-31.67,36.5,14.04,92.11,9.6,68.16,111.11,2.27,289.34,0.0,84.07,60.72,151.61,12.31,84.07,-1.76,1.59,3838.87,-24.57,54.55,-2.53,304.54,17.45,79.13,1310.89,1.56,310.94
159.0,-0.38,1.59,0.93,0.06,0.24,1.97,0.01,2.96,0.92,-0.77,1.15,0.4,0.07,0.26,1.92,0.01,2.71,0.23,-0.54,2.05,0.1,0.02,0.15,2.59,0.0,3.69,0.03,-164.25,200.74,6.29,1807.24,42.51,364.99,8245.8,4.32,1846.82,-223.33,137.45,3.32,1255.03,35.43,360.78,26503.73,4.01,1266.03,-171.26,141.97,4.92,3757.69,61.3,313.23,-40862.98,2.53,3781.87,-31.67,36.5,13.97,91.88,9.59,68.16,129.93,2.29,287.03,0.0,84.07,60.59,151.41,12.3,84.07,52.86,1.6,3822.42,-24.57,54.55,-2.81,303.61,17.42,79.13,1508.39,1.58,311.49
160.0,-0.38,1.59,0.93,0.06,0.24,1.97,0.01,2.89,0.93,-0.77,1.15,0.4,0.07,0.26,1.92,0.01,2.71,0.23,-0.54,2.05,0.1,0.02,0.15,2.59,0.0,3.68,0.03,-164.25,200.74,5.64,1817.85,42.64,364.99,10957.77,4.29,1849.71,-223.33,137.45,2.36,1292.37,35.95,360.78,26884.89,3.96,1297.96,-171.26,141.97,6.05,3831.78,61.9,313.23,-46481.52,2.49,3868.36,-31.67,36.5,13.95,92.14,9.6,68.16,133.76,2.28,286.67,0.0,84.07,60.41,150.14,12.25,84.07,112.28,1.61,3799.75,-24.57,54.55,-3.17,299.65,17.31,79.13,1684.9,1.62,309.71
161.0,-0.38,1.59,0.93,0.06,0.24,1.97,0.01,2.9,0.93,-0.77,1.15,0.4,0.07,0.26,1.92,0.01,2.71,0.23,-0.54,2.05,0.1,0.02,0.15,2.59,0.0,3.69,0.03,-164.25,200.74,5.9,1806.24,42.5,364.99,9973.52,4.34,1841.1,-223.33,137.45,2.87,1300.36,36.06,360.78,25346.21,3.89,1308.57,-171.26,141.97,4.49,3801.05,61.65,313.23,-38577.29,2.48,3821.17,-31.67,36.5,13.79,94.01,9.7,68.16,151.03,2.24,284.21,0.0,84.07,60.21,150.23,12.26,84.07,182.72,1.62,3775.43,-24.57,54.55,-3.48,297.99,17.26,79.13,1882.25,1.65,310.13
162.0,-0.38,1.59,0.93,0.06,0.24,1.97,0.01,2.85,0.92,-0.77,1.15,0.4,0.07,0.26,1.92,0.01,2.75,0.23,-0.54,2.05,0.1,0.02,0.16,2.59,0.0,3.59,0.03,-164.25,200.74,6.08,1797.84,42.4,364.99,9316.82,4.37,1834.85,-223.33,137.45,2.85,1300.15,36.06,360.78,25408.38,3.89,1308.26,-171.26,141.97,4.72,3786.86,61.54,313.23,-40593.98,2.5,3809.16,-31.67,36.5,13.67,93.46,9.67,68.16,178.13,2.27,280.43,0.0,84.07,60.18,150.07,12.25,84.07,193.74,1.62,3772.13,-24.57,54.55,-3.74,296.63,17.22,79.13,2062.1,1.69,310.6
163.0,-0.38,1.59,0.93,0.06,0.24,1.97,0.01,2.83,0.93,-0.77,1.15,0.4,0.07,0.26,1.92,0.01,2.74,0.23,-0.54,2.05,0.1,0.02,0.16,2.59,0.0,3.53,0.03,-164.25,200.74,5.53,1791.35,42.32,364.99,11827.7,4.41,1821.89,-223.33,137.45,2.27,1324.58,36.39,360.78,26416.55,3.82,1329.75,-171.26,141.97,5.71,3914.35,62.56,313.23,-37321.77,2.46,3947.0,-31.67,36.5,13.64,93.74,9.68,68.16,184.55,2.26,279.89,0.0,84.07,60.02,148.79,12.2,84.07,248.76,1.65,3751.11,-24.57,54.55,-4.05,293.33,17.13,79.13,2236.11,1.73,309.73
164.0,-0.38,1.59,0.93,0.06,0.24,1.97,0.01,2.86,0.92,-0.77,1.15,0.4,0.07,0.26,1.92,0.01,2.7,0.23,-0.54,2.05,0.1,0.02,0.16,2.59,0.0,3.53,0.03,-164.25,200.74,5.81,1791.51,42.33,364.99,10342.18,4.4,1825.31,-223.33,137.45,2.63,1328.61,36.45,360.78,25139.76,3.78,1335.55,-171.26,141.97,4.43,3859.03,62.12,313.23,-29429.36,2.49,3878.66,-31.67,36.5,13.53,94.75,9.73,68.16,206.32,2.24,277.8,0.0,84.07,59.76,148.96,12.2,84.07,320.7,1.66,3719.83,-24.57,54.55,-4.36,290.99,17.06,79.13,2420.25,1.78,310.0
165.0,-0.38,1.59,0.93,0.06,0.24,1.97,0.01,2.84,0.92,-0.77,1.15,0.4,0.07,0.26,1.92,0.01,2.73,0.23,-0.54,2.05,0.1,0.02,0.16,2.59,0.0,3.53,0.03,-164.25,200.74,5.83,1791.25,42.32,364.99,10284.38,4.4,1825.18,-223.33,137.45,3.07,1344.16,36.66,360.78,23994.14,3.68,1353.62,-171.26,141.97,4.0,3901.52,62.46,313.23,-27776.88,2.45,3917.52,-31.67,36.5,13.43,93.99,9.69,68.16,227.43,2.28,274.38,0.0,84.07,59.66,148.63,12.19,84.07,360.51,1.67,3708.02,-24.57,54.55,-4.57,290.84,17.05,79.13,2582.63,1.81,311.76
166.0,-0.38,1.59,0.93,0.06,0.24,1.97,0.01,2.78,0.93,-0.77,1.15,0.4,0.07,0.26,1.92,0.01,2.73,0.23,-0.54,2.05,0.1,0.02,0.16,2.59,0.0,3.51,0.03,-164.25,200.74,5.19,1758.31,41.93,364.99,11764.03,4.54,1785.2,-223.33,137.45,2.4,1350.85,36.75,360.78,25903.1,3.69,1356.62,-171.26,141.97,4.62,3978.84,63.08,313.23,-27255.94,2.41,4000.17,-31.67,36.5,13.43,93.98,9.69,68.16,226.48,2.28,274.46,0.0,84.07,59.44,146.44,12.1,84.07,415.13,1.71,3679.44,-24.57,54.55,-4.86,289.15,17.0,79.13,2765.88,1.86,312.79
167.0,-0.38,1.59,0.93,0.06,0.24,1.97,0.01,2.8,0.92,-0.77,1.15,0.39,0.07,0.26,1.92,0.01,2.74,0.22,-0.54,2.05,0.1,0.02,0.16,2.59,0.0,3.54,0.03,-164.25,200.74,5.04,1760.18,41.95,364.99,12530.63,4.54,1785.53,-223.33,137.45,2.57,1343.2,36.65,360.78,25504.89,3.72,1349.79,-171.26,141.97,3.71,3923.76,62.64,313.23,-20837.02,2.45,3937.51,-31.67,36.5,13.3,93.53,9.67,68.16,256.92,2.31,270.45,0.0,84.07,59.16,146.35,12.1,84.07,483.52,1.73,3646.4,-24.57,54.55,-5.2,288.63,16.99,79.13,2961.63,1.91,315.64
168.0,-0.38,1.59,0.93,0.06,0.25,1.97,0.01,2.78,0.92,-0.77,1.15,0.4,0.07,0.26,1.92,0.01,2.79,0.22,-0.54,2.05,0.1,0.02,0.16,2.59,0.0,3.53,0.03,-164.25,200.74,5.36,1758.85,41.94,364.99,10914.54,4.54,1787.56,-223.33,137.45,2.59,1342.38,36.64,360.78,25436.18,3.72,1349.09,-171.26,141.97,3.74,3920.91,62.62,313.23,-21006.77,2.45,3934.88,-31.67,36.5,13.16,91.63,9.57,68.16,268.92,2.38,264.91,0.0,84.07,59.03,145.78,12.07,84.07,532.57,1.76,3630.67,-24.57,54.55,-5.44,289.51,17.01,79.13,3136.02,1.94,319.15
169.0,-0.38,1.59,0.93,0.06,0.25,1.97,0.01,2.75,0.93,-0.77,1.15,0.4,0.07,0.26,1.92,0.01,2.81,0.22,-0.54,2.05,0.1,0.02,0.16,2.59,0.0,3.51,0.03,-164.25,200.74,5.11,1748.92,41.82,364.99,11907.33,4.59,1774.99,-223.33,137.45,2.08,1345.32,36.68,360.78,27145.93,3.74,1349.65,-171.26,141.97,4.7,3996.75,63.22,313.23,-25721.61,2.4,4018.84,-31.67,36.5,13.11,91.44,9.56,68.16,283.32,2.39,263.26,0.0,84.07,58.76,142.33,11.93,84.07,566.87,1.79,3594.52,-24.57,54.55,-5.79,288.95,17.0,79.13,3332.09,1.99,322.42
170.0,-0.38,1.59,0.93,0.06,0.25,1.97,0.01,2.79,0.92,-0.77,1.15,0.39,0.07,0.26,1.92,0.01,2.82,0.22,-0.54,2.05,0.1,0.02,0.15,2.59,0.0,3.54,0.03,-164.25,200.74,4.88,1750.28,41.84,364.99,13060.7,4.59,1774.09,-223.33,137.45,2.07,1345.92,36.69,360.78,27196.05,3.73,1350.18,-171.26,141.97,4.28,3964.99,62.97,313.23,-22692.42,2.43,3983.31,-31.67,36.5,12.92,91.28,9.55,68.16,318.15,2.43,258.17,0.0,84.07,58.43,141.88,11.91,84.07,618.04,1.83,3555.64,-24.57,54.55,-6.1,289.48,17.01,79.13,3526.67,2.04,326.71
171.0,-0.38,1.59,0.93,0.06,0.24,1.97,0.01,2.82,0.92,-0.77,1.15,0.39,0.07,0.26,1.92,0.01,2.83,0.22,-0.54,2.05,0.1,0.02,0.15,2.59,0.0,3.53,0.03,-164.25,200.74,4.98,1753.19,41.87,364.99,12611.37,4.57,1777.98,-223.33,137.45,2.05,1346.13,36.69,360.78,27247.78,3.73,1350.34,-171.26,141.97,4.15,3970.69,63.01,313.23,-21361.83,2.42,3987.93,-31.67,36.5,12.71,88.08,9.39,68.16,314.2,2.5,249.72,0.0,84.07,58.26,141.96,11.91,84.07,678.07,1.85,3535.91,-24.57,54.55,-6.4,290.52,17.04,79.13,3717.52,2.08,331.5
172.0,-0.38,1.59,0.93,0.06,0.25,1.97,0.01,2.72,0.94,-0.77,1.15,0.4,0.07,0.26,1.92,0.01,2.79,0.22,-0.54,2.05,0.11,0.02,0.15,2.59,0.0,3.61,0.03,-164.25,200.74,4.3,1738.48,41.7,364.99,15150.36,4.65,1756.94,-223.33,137.45,1.65,1358.82,36.86,360.78,28420.86,3.7,1361.54,-171.26,141.97,5.02,4036.17,63.53,313.23,-26426.61,2.37,4061.35,-31.67,36.5,12.64,88.06,9.38,68.16,333.29,2.52,247.76,0.0,84.07,57.93,137.29,11.72,84.07,677.97,1.87,3493.41,-24.57,54.55,-6.75,289.19,17.01,79.13,3910.86,2.16,334.8
173.0,-0.38,1.59,0.93,0.06,0.25,1.97,0.01,2.78,0.92,-0.77,1.15,0.39,0.07,0.26,1.92,0.01,2.77,0.22,-0.54,2.05,0.11,0.02,0.15,2.59,0.0,3.67,0.03,-164.25,200.74,4.14,1741.64,41.73,364.99,15927.95,4.63,1758.75,-223.33,137.45,1.58,1362.11,36.91,360.78,28587.89,3.69,1364.6,-171.26,141.97,4.78,4015.56,63.37,313.23,-24871.07,2.39,4038.39,-31.67,36.5,12.47,89.31,9.45,68.16,358.95,2.5,244.83,0.0,84.07,57.56,133.99,11.58,84.07,678.14,1.89,3447.05,-24.57,54.55,-7.12,286.0,16.91,79.13,4083.24,2.25,336.69
174.0,-0.38,1.59,0.93,0.06,0.25,1.97,0.01,2.8,0.93,-0.77,1.15,0.4,0.07,0.26,1.92,0.01,2.75,0.23,-0.54,2.05,0.11,0.02,0.15,2.59,0.0,3.53,0.04,-164.25,200.74,4.5,1763.91,42.0,364.99,15166.84,4.53,1784.16,-223.33,137.45,1.84,1362.48,36.91,360.78,27558.69,3.67,1365.87,-171.26,141.97,3.8,4006.69,63.3,313.23,-15526.42,2.4,4021.16,-31.67,36.5,12.24,86.21,9.29,68.16,357.72,2.58,236.12,0.0,84.07,57.39,133.41,11.55,84.07,732.51,1.92,3426.99,-24.57,54.55,-7.42,284.91,16.88,79.13,4269.75,2.32,339.96
175.0,-0.38,1.59,0.94,0.06,0.25,1.97,0.01,2.77,0.94,-0.77,1.15,0.4,0.07,0.26,1.92,0.01,2.75,0.23,-0.54,2.05,0.11,0.02,0.15,2.59,0.0,3.61,0.04,-164.25,200.74,4.01,1769.01,42.06,364.99,17440.96,4.52,1785.06,-223.33,137.45,1.89,1362.32,36.91,360.78,27347.35,3.67,1365.9,-171.26,141.97,4.66,4017.57,63.38,313.23,-24152.11,2.39,4039.27,-31.67,36.5,12.15,86.09,9.28,68.16,379.92,2.61,233.69,0.0,84.07,57.11,129.23,11.37,84.07,741.12,1.97,3391.1,-24.57,54.55,-7.73,282.98,16.82,79.13,4450.49,2.41,342.75
176.0,-0.38,1.59,0.93,0.06,0.25,1.97,0.01,2.85,0.93,-0.77,1.15,0.39,0.07,0.26,1.92,0.01,2.78,0.22,-0.54,2.05,0.12,0.02,0.15,2.59,0.0,3.68,0.04,-164.25,200.74,4.31,1764.56,42.01,364.99,15945.98,4.53,1783.15,-223.33,137.45,1.91,1362.02,36.91,360.78,27294.62,3.67,1365.66,-171.26,141.97,4.58,4011.58,63.34,313.23,-23467.26,2.39,4032.52,-31.67,36.5,12.11,86.22,9.29,68.16,389.89,2.61,232.84,0.0,84.07,56.77,124.87,11.17,84.07,728.54,1.99,3347.42,-24.57,54.55,-8.09,277.67,16.66,79.13,4578.05,2.53,343.19
177.0,-0.38,1.59,0.93,0.06,0.25,1.97,0.01,2.87,0.93,-0.77,1.15,0.4,0.07,0.26,1.92,0.01,2.7,0.23,-0.54,2.05,0.12,0.02,0.15,2.59,0.0,3.69,0.04,-164.25,200.74,4.7,1782.56,42.22,364.99,14624.65,4.44,1804.69,-223.33,137.45,2.29,1369.79,37.01,360.78,25978.91,3.61,1375.05,-171.26,141.97,3.6,4000.71,63.25,313.23,-14164.56,2.4,4013.69,-31.67,36.5,12.01,84.55,9.2,68.16,392.66,2.69,228.73,0.0,84.07,56.63,123.64,11.12,84.07,765.55,2.05,3330.36,-24.57,54.55,-8.36,274.78,16.58,79.13,4727.78,2.64,344.67
178.0,-0.38,1.59,0.93,0.06,0.25,1.97,0.01,2.81,0.93,-0.77,1.15,0.4,0.07,0.26,1.92,0.01,2.73,0.23,-0.54,2.05,0.12,0.02,0.15,2.59,0.0,3.79,0.04,-164.25,200.74,5.17,1770.64,42.08,364.99,12639.32,4.49,1797.33,-223.33,137.45,2.08,1377.08,37.11,360.78,26634.25,3.58,1381.41,-171.26,141.97,5.45,3903.34,62.48,313.23,-16498.05,2.41,3933.0,-31.67,36.5,12.0,84.54,9.19,68.16,393.18,2.69,228.65,0.0,84.07,56.4,119.67,10.94,84.07,766.42,2.12,3301.08,-24.57,54.55,-8.62,271.92,16.49,79.13,4875.29,2.75,346.31
179.0,-0.38,1.59,0.93,0.06,0.25,1.97,0.01,2.83,0.93,-0.77,1.15,0.39,0.07,0.26,1.92,0.01,2.78,0.22,-0.54,2.05,0.12,0.02,0.15,2.59,0.0,3.86,0.04,-164.25,200.74,5.49,1760.17,41.95,364.99,11287.68,4.53,1790.26,-223.33,137.45,2.09,1377.19,37.11,360.78,26607.82,3.58,1381.55,-171.26,141.97,5.06,3912.2,62.55,313.23,-12312.55,2.4,3937.85,-31.67,36.5,12.02,84.45,9.19,68.16,389.98,2.7,228.91,0.0,84.07,56.1,114.82,10.72,84.07,745.18,2.16,3261.96,-24.57,54.55,-8.96,267.93,16.37,79.13,5017.06,2.89,348.26
180.0,-0.38,1.59,0.93,0.06,0.25,1.97,0.01,2.85,0.93,-0.77,1.15,0.4,0.07,0.26,1.92,0.01,2.7,0.23,-0.54,2.05,0.12,0.02,0.14,2.59,0.0,3.96,0.04,-164.25,200.74,6.02,1721.34,41.49,364.99,10975.72,4.68,1757.61,-223.33,137.45,2.6,1381.32,37.17,360.78,24840.2,3.54,1388.1,-171.26,141.97,3.84,3925.82,62.66,313.23,-2622.18,2.39,3940.6,-31.67,36.5,11.93,82.89,9.1,68.16,391.58,2.78,225.13,0.0,84.07,55.99,113.27,10.64,84.07,763.33,2.22,3247.98,-24.57,54.55,-9.22,264.57,16.27,79.13,5149.05,3.01,349.67
181.0,-0.38,1.59,0.93,0.06,0.25,1.97,0.01,2.85,0.93,-0.77,1.15,0.4,0.07,0.26,1.92,0.01,2.65,0.23,-0.54,2.05,0.12,0.02,0.14,2.59,0.0,4.01,0.04,-164.25,200.74,5.34,1745.79,41.78,364.99,13076.18,4.58,1774.29,-223.33,137.45,1.99,1405.23,37.49,360.78,26126.54,3.48,1409.2,-171.26,141.97,5.59,3810.52,61.73,313.23,-3899.46,2.4,3841.72,-31.67,36.5,11.87,82.21,9.07,68.16,399.3,2.83,223.08,0.0,84.07,55.79,109.8,10.48,84.07,763.54,2.31,3222.84,-24.57,54.55,-9.52,260.06,16.13,79.13,5266.43,3.17,350.76
182.0,-0.38,1.59,0.93,0.06,0.25,1.97,0.01,2.81,0.92,-0.77,1.15,0.39,0.07,0.26,1.92,0.01,2.71,0.22,-0.54,2.05,0.12,0.02,0.14,2.59,0.0,4.11,0.04,-164.25,200.74,5.29,1746.96,41.8,364.99,13296.93,4.58,1774.97,-223.33,137.45,1.89,1403.59,37.46,360.78,26531.04,3.49,1407.17,-171.26,141.97,5.69,3805.72,61.69,313.23,-4915.18,2.4,3838.09,-31.67,36.5,11.82,82.57,9.09,68.16,408.69,2.82,222.31,0.0,84.07,55.5,104.83,10.24,84.07,731.13,2.36,3184.64,-24.57,54.55,-9.95,250.86,15.84,79.13,5249.58,3.39,349.93
183.0,-0.38,1.59,0.93,0.06,0.25,1.97,0.01,2.81,0.92,-0.77,1.15,0.4,0.07,0.27,1.92,0.01,2.63,0.23,-0.54,2.05,0.13,0.02,0.14,2.59,0.0,3.99,0.04,-164.25,200.74,3.87,1592.2,39.9,364.99,595.83,4.55,1607.16,-223.33,137.45,2.76,1352.98,36.78,360.78,26789.5,3.56,1360.59,-171.26,141.97,4.76,3814.95,61.77,313.23,3618.63,2.39,3837.64,-31.67,36.5,11.7,80.66,8.98,68.16,412.49,2.93,217.48,0.0,84.07,55.42,103.46,10.17,84.07,734.63,2.41,3174.97,-24.57,54.55,-10.38,238.5,15.44,79.13,5100.04,3.61,346.18
184.0,-0.38,1.59,0.93,0.06,0.25,1.97,0.01,2.77,0.93,-0.77,1.15,0.4,0.07,0.26,1.92,0.01,2.64,0.23,-0.54,2.05,0.12,0.02,0.13,2.59,0.0,3.54,0.03,-164.25,200.74,3.39,1599.06,39.99,364.99,2538.77,4.51,1610.55,-223.33,137.45,2.57,1354.76,36.81,360.78,27514.31,3.56,1361.39,-171.26,141.97,5.14,3847.71,62.03,313.23,1571.39,2.36,3874.12,-31.67,36.5,11.44,74.5,8.63,68.16,318.51,2.81,205.44,0.0,84.07,55.47,103.44,10.17,84.07,719.63,2.4,3180.42,-24.57,54.55,-10.72,231.71,15.22,79.13,5140.28,3.86,346.62
185.0,-0.38,1.59,0.93,0.06,0.25,1.97,0.01,2.77,0.93,-0.77,1.15,0.4,0.07,0.26,1.92,0.01,2.64,0.23,-0.54,2.05,0.11,0.02,0.13,2.59,0.0,2.94,0.03,-164.25,200.74,4.35,1469.15,38.33,364.99,13530.15,4.51,1488.06,-223.33,137.45,1.16,1171.26,34.22,360.78,7945.0,2.37,1172.61,-171.26,141.97,4.94,3847.07,62.02,313.23,3881.09,2.36,3871.45,-31.67,36.5,11.28,71.16,8.44,68.16,291.65,2.89,198.43,0.0,84.07,55.48,103.39,10.17,84.07,715.31,2.4,3181.96,-24.57,54.55,-11.28,208.19,14.43,79.13,4329.71,3.7,335.41
186.0,-0.38,1.59,0.93,0.06,0.25,1.97,0.01,2.75,0.94,-0.77,1.15,0.4,0.07,0.26,1.92,0.01,2.64,0.23,-0.54,2.05,0.12,0.02,0.13,2.59,0.0,2.86,0.03,-164.25,200.74,6.26,1461.71,38.23,364.99,22582.08,4.42,1500.88,-223.33,137.45,2.55,1150.0,33.91,360.78,10053.45,2.27,1156.5,-171.26,141.97,4.49,3859.06,62.12,313.23,8626.57,2.35,3879.18,-31.67,36.5,11.23,70.15,8.38,68.16,287.38,2.95,196.26,0.0,84.07,55.45,102.04,10.1,84.07,689.5,2.39,3176.52,-24.57,54.55,-11.6,193.48,13.91,79.13,3939.36,3.81,328.12
187.0,-0.38,1.59,0.94,0.06,0.25,1.97,0.01,2.72,0.94,-0.77,1.15,0.41,0.07,0.27,1.92,0.01,2.56,0.24,-0.54,2.05,0.12,0.02,0.13,2.59,0.0,2.83,0.03,-164.25,200.74,5.91,1462.81,38.25,364.99,24013.11,4.43,1497.71,-223.33,137.45,2.12,1156.36,34.01,360.78,11262.81,2.26,1160.87,-171.26,141.97,5.29,3862.49,62.15,313.23,621.53,2.35,3890.48,-31.67,36.5,11.14,67.35,8.21,68.16,234.32,2.86,191.55,0.0,84.07,55.45,102.13,10.11,84.07,690.47,2.38,3176.92,-24.57,54.55,-11.71,190.39,13.8,79.13,3925.61,3.94,327.41
188.0,-0.38,1.59,0.93,0.06,0.25,1.97,0.01,2.69,0.94,-0.77,1.15,0.4,0.07,0.27,1.92,0.01,2.55,0.24,-0.54,2.05,0.11,0.02,0.13,2.59,0.0,2.79,0.03,-164.25,200.74,5.37,1453.35,38.12,364.99,25856.18,4.51,1482.16,-223.33,137.45,1.74,1145.0,33.84,360.78,12201.85,2.31,1148.02,-171.26,141.97,5.83,3851.03,62.06,313.23,-5087.48,2.36,3885.07,-31.67,36.5,11.18,68.39,8.27,68.16,248.83,2.86,193.41,0.0,84.07,55.27,97.16,9.86,84.07,627.68,2.4,3151.88,-24.57,54.55,-11.98,179.6,13.4,79.13,3712.2,4.18,323.21
189.0,-0.38,1.59,0.93,0.06,0.25,1.97,0.01,2.69,0.94,-0.77,1.15,0.41,0.08,0.28,1.92,0.01,2.55,0.25,-0.54,2.05,0.11,0.02,0.13,2.59,0.0,2.74,0.03,-164.25,200.74,4.76,1408.41,37.53,364.99,25398.86,4.73,1431.09,-223.33,137.45,2.37,1150.75,33.92,360.78,10694.95,2.27,1156.37,-171.26,141.97,4.5,3950.83,62.86,313.23,-1017.6,2.32,3971.11,-31.67,36.5,11.16,67.86,8.24,68.16,244.12,2.88,192.39,0.0,84.07,55.24,95.99,9.8,84.07,606.12,2.39,3147.05,-24.57,54.55,-12.21,167.62,12.95,79.13,3328.79,4.21,316.74
190.0,-0.38,1.59,0.94,0.06,0.25,1.97,0.01,2.66,0.94,-0.77,1.15,0.42,0.08,0.28,1.92,0.01,2.53,0.25,-0.54,2.05,0.11,0.02,0.12,2.59,0.0,2.72,0.03,-164.25,200.74,5.72,1347.64,36.71,364.99,26528.11,4.89,1380.34,-223.33,137.45,2.09,1168.75,34.19,360.78,10732.28,2.24,1173.13,-171.26,141.97,6.26,4095.29,63.99,313.23,216.23,2.32,4134.43,-31.67,36.5,11.07,64.75,8.05,68.16,175.73,2.67,187.34,0.0,84.07,55.35,97.98,9.9,84.07,600.99,2.31,3162.16,-24.57,54.55,-12.24,166.25,12.89,79.13,3299.42,4.25,316.14
191.0,-0.38,1.59,0.94,0.06,0.25,1.97,0.01,2.67,0.94,-0.77,1.15,0.42,0.08,0.28,1.92,0.01,2.52,0.25,-0.54,2.05,0.11,0.02,0.12,2.59,0.0,2.77,0.03,-164.25,200.74,4.88,1350.79,36.75,364.99,28443.74,4.92,1374.63,-223.33,137.45,1.8,1156.97,34.01,360.78,11328.51,2.29,1160.22,-171.26,141.97,5.21,4171.31,64.59,313.23,6173.97,2.27,4198.46,-31.67,36.5,11.14,66.64,8.16,68.16,200.51,2.67,190.82,0.0,84.07,55.23,94.46,9.72,84.07,560.79,2.34,3144.34,-24.57,54.55,-12.38,160.02,12.65,79.13,3148.6,4.38,313.29
192.0,-0.38,1.59,0.94,0.06,0.25,1.97,0.01,2.66,0.95,-0.77,1.15,0.42,0.08,0.28,1.92,0.01,2.46,0.26,-0.54,2.05,0.12,0.02,0.12,2.59,0.0,2.72,0.03,-164.25,200.74,5.14,1366.13,36.96,364.99,28133.49,4.81,1392.53,-223.33,137.45,2.79,1199.86,34.64,360.78,11644.97,2.27,1207.65,-171.26,141.97,3.99,4101.62,64.04,313.23,13782.25,2.31,4117.56,-31.67,36.5,11.14,66.49,8.15,68.16,199.91,2.68,190.49,0.0,84.07,55.23,94.78,9.74,84.07,566.53,2.34,3145.67,-24.57,54.55,-12.43,157.3,12.54,79.13,3063.05,4.4,311.83
193.0,-0.38,1.59,0.94,0.06,0.25,1.97,0.01,2.7,0.95,-0.77,1.15,0.43,0.08,0.28,1.92,0.01,2.41,0.26,-0.54,2.05,0.12,0.02,0.13,2.59,0.0,2.98,0.03,-164.25,200.74,6.69,1542.72,39.28,364.99,45786.82,5.05,1587.52,-223.33,137.45,2.9,1195.65,34.58,360.78,11399.87,2.28,1204.04,-171.26,141.97,4.92,4187.57,64.71,313.23,10215.82,2.26,4211.78,-31.67,36.5,11.13,66.26,8.14,68.16,195.87,2.67,190.1,0.0,84.07,55.28,95.66,9.78,84.07,565.19,2.3,3151.85,-24.57,54.55,-12.36,160.76,12.68,79.13,3157.23,4.34,313.54
194.0,-0.38,1.59,0.94,0.06,0.25,1.97,0.01,2.68,0.95,-0.77,1.15,0.42,0.08,0.28,1.92,0.01,2.48,0.26,-0.54,2.05,0.12,0.02,0.13,2.59,0.0,2.98,0.03,-164.25,200.74,5.48,1611.5,40.14,364.99,44125.95,4.95,1641.49,-223.33,137.45,2.69,1186.98,34.45,360.78,11858.61,2.31,1194.2,-171.26,141.97,4.01,4283.05,65.45,313.23,12363.19,2.21,4299.14,-31.67,36.5,11.26,69.35,8.33,68.16,228.74,2.64,196.16,0.0,84.07,55.14,92.5,9.62,84.07,543.6,2.37,3133.44,-24.57,54.55,-12.46,155.41,12.47,79.13,2996.49,4.39,310.76
195.0,-0.38,1.59,0.94,0.06,0.25,1.97,0.01,2.66,0.95,-0.77,1.15,0.42,0.08,0.28,1.92,0.01,2.54,0.25,-0.54,2.05,0.12,0.02,0.13,2.59,0.0,3.04,0.03,-164.25,200.74,6.61,1550.48,39.38,364.99,44844.23,5.07,1594.12,-223.33,137.45,3.83,1192.6,34.53,360.78,11564.04,2.28,1207.3,-171.26,141.97,3.31,4311.98,65.67,313.23,19634.83,2.19,4322.94,-31.67,36.5,11.32,70.22,8.38,68.16,227.42,2.59,198.31,0.0,84.07,55.16,92.83,9.63,84.07,547.41,2.36,3135.04,-24.57,54.55,-12.62,144.89,12.04,79.13,2512.05,3.88,304.07
196.0,-0.38,1.59,0.94,0.06,0.25,1.97,0.01,2.7,0.95,-0.77,1.15,0.42,0.08,0.28,1.92,0.01,2.53,0.26,-0.54,2.05,0.12,0.02,0.13,2.59,0.0,3.07,0.03,-164.25,200.74,7.08,1505.43,38.8,364.99,46151.92,5.23,1555.56,-223.33,137.45,4.05,1181.62,34.37,360.78,11238.83,2.3,1198.02,-171.26,141.97,3.03,4309.34,65.65,313.23,23146.24,2.19,4318.55,-31.67,36.5,11.23,68.01,8.25,68.16,202.8,2.61,194.1,0.0,84.07,55.24,94.82,9.74,84.07,563.28,2.32,3145.88,-24.57,54.55,-12.52,150.09,12.25,79.13,2678.79,3.91,306.82
197.0,-0.38,1.59,0.94,0.06,0.25,1.97,0.01,2.71,0.95,-0.77,1.15,0.41,0.07,0.27,1.92,0.01,2.51,0.24,-0.54,2.05,0.12,0.02,0.13,2.59,0.0,3.11,0.03,-164.25,200.74,5.73,1301.85,36.08,364.99,22676.63,4.64,1334.66,-223.33,137.45,3.2,1148.99,33.9,360.78,11734.57,2.36,1159.22,-171.26,141.97,4.35,4361.06,66.04,313.23,13255.24,2.16,4379.96,-31.67,36.5,11.27,69.21,8.32,68.16,222.2,2.63,196.19,0.0,84.07,55.17,93.21,9.65,84.07,549.4,2.35,3137.31,-24.57,54.55,-12.53,149.58,12.23,79.13,2662.49,3.91,306.54
198.0,-0.38,1.59,0.95,0.06,0.25,1.97,0.01,2.61,0.96,-0.77,1.15,0.41,0.07,0.27,1.92,0.01,2.55,0.24,-0.54,2.05,0.12,0.02,0.13,2.59,0.0,3.17,0.03,-164.25,200.74,6.18,1285.78,35.86,364.99,21582.91,4.72,1323.97,-223.33,137.45,4.08,1192.78,34.54,360.78,11981.78,2.32,1209.42,-171.26,141.97,3.17,4524.83,67.27,313.23,7836.0,2.14,4534.86,-31.67,36.5,11.4,72.15,8.49,68.16,250.5,2.59,202.04,0.0,84.07,55.11,91.41,9.56,84.07,528.14,2.37,3128.48,-24.57,54.55,-12.69,139.14,11.8,79.13,2227.64,3.45,300.27
199.0,-0.38,1.59,0.95,0.06,0.25,1.97,0.01,2.61,0.96,-0.77,1.15,0.42,0.07,0.27,1.92,0.01,2.56,0.25,-0.54,2.05,0.12,0.02,0.13,2.59,0.0,3.18,0.03,-164.25,200.74,6.83,1236.54,35.16,364.99,22592.24,4.9,1283.23,-223.33,137.45,4.42,1188.75,34.48,360.78,10911.66,2.32,1208.25,-171.26,141.97,2.42,4501.76,67.1,313.23,16380.94,2.16,4507.61,-31.67,36.5,11.27,69.85,8.36,68.16,241.43,2.68,196.86,0.0,84.07,55.21,94.84,9.74,84.07,589.64,2.42,3143.12,-24.57,54.55,-12.61,144.04,12.0,79.13,2404.1,3.58,303.01
200.0,-0.38,1.59,0.94,0.06,0.24,1.97,0.01,2.53,0.94,-0.77,1.15,0.42,0.07,0.27,1.92,0.01,2.54,0.25,-0.54,2.05,0.12,0.02,0.13,2.59,0.0,3.18,0.03,-164.25,200.74,6.08,1272.07,35.67,364.99,23106.31,4.76,1308.98,-223.33,137.45,3.48,1173.33,34.25,360.78,11993.64,2.36,1185.46,-171.26,141.97,4.47,4349.93,65.95,313.23,19168.44,2.12,4369.93,-31.67,36.5,11.26,69.49,8.34,68.16,237.01,2.68,196.19,0.0,84.07,55.21,94.82,9.74,84.07,589.46,2.42,3143.02,-24.57,54.55,-12.52,148.13,12.17,79.13,2511.97,3.56,304.91
201.0,-0.38,1.59,0.94,0.06,0.25,1.97,0.0,2.49,0.95,-0.77,1.15,0.41,0.07,0.27,1.92,0.01,2.52,0.25,-0.54,2.05,0.12,0.02,0.13,2.59,0.0,3.17,0.03,-164.25,200.74,5.97,1272.5,35.67,364.99,23493.62,4.76,1308.18,-223.33,137.45,3.76,1188.84,34.48,360.78,11690.5,2.31,1203.01,-171.26,141.97,3.66,4461.08,66.79,313.23,17146.87,2.09,4474.47,-31.67,36.5,11.38,71.89,8.48,68.16,250.21,2.61,201.41,0.0,84.07,55.08,90.74,9.53,84.07,524.04,2.39,3124.61,-24.57,54.55,-12.55,146.9,12.12,79.13,2475.14,3.55,304.28
202.0,-0.38,1.59,0.94,0.06,0.25,1.97,0.01,2.47,0.95,-0.77,1.15,0.42,0.07,0.27,1.92,0.01,2.53,0.25,-0.54,2.05,0.12,0.02,0.13,2.59,0.0,3.17,0.03,-164.25,200.74,5.97,1272.47,35.67,364.99,23502.62,4.76,1308.12,-223.33,137.45,4.39,1182.34,34.39,360.78,10126.76,2.31,1201.63,-171.26,141.97,1.96,4387.6,66.24,313.23,25045.06,2.11,4391.44,-31.67,36.5,11.21,69.73,8.35,68.16,252.86,2.7,195.48,0.0,84.07,55.15,93.27,9.66,84.07,576.33,2.45,3134.63,-24.57,54.55,-12.39,155.09,12.45,79.13,2740.77,3.64,308.63
203.0,-0.38,1.59,0.94,0.06,0.24,1.97,0.0,2.3,0.94,-0.77,1.15,0.42,0.07,0.27,1.92,0.01,2.56,0.25,-0.54,2.05,0.12,0.02,0.12,2.59,0.0,3.21,0.03,-164.25,200.74,5.39,1251.04,35.37,364.99,24617.56,4.93,1280.1,-223.33,137.45,3.29,1172.14,34.24,360.78,10621.06,2.34,1182.99,-171.26,141.97,4.2,4402.78,66.35,313.23,23622.52,2.1,4420.4,-31.67,36.5,11.13,67.73,8.23,68.16,235.71,2.76,191.51,0.0,84.07,55.23,95.85,9.79,84.07,615.53,2.45,3146.25,-24.57,54.55,-12.2,164.29,12.82,79.13,2999.96,3.62,313.14
204.0,-0.38,1.59,0.94,0.06,0.24,1.97,0.0,2.34,0.94,-0.77,1.15,0.42,0.07,0.27,1.92,0.01,2.54,0.25,-0.54,2.05,0.12,0.02,0.13,2.59,0.0,3.21,0.03,-164.25,200.74,5.15,1248.25,35.33,364.99,25464.18,4.97,1274.76,-223.33,137.45,3.16,1167.91,34.17,360.78,10978.83,2.36,1177.91,-171.26,141.97,4.17,4404.67,66.37,313.23,23835.5,2.1,4422.08,-31.67,36.5,11.26,72.41,8.51,68.16,334.87,3.0,199.22,0.0,84.07,55.1,92.46,9.62,84.07,581.04,2.5,3128.44,-24.57,54.55,-12.24,162.07,12.73,79.13,2924.58,3.61,311.88
205.0,-0.38,1.59,0.94,0.06,0.24,1.97,0.0,2.32,0.94,-0.77,1.15,0.42,0.07,0.27,1.92,0.01,2.55,0.25,-0.54,2.05,0.12,0.02,0.12,2.59,0.0,3.22,0.03,-164.25,200.74,5.64,1248.83,35.34,364.99,23922.03,4.93,1280.63,-223.33,137.45,3.86,1152.3,33.95,360.78,9660.73,2.37,1167.23,-171.26,141.97,3.0,4391.09,66.27,313.23,35144.85,2.11,4400.12,-31.67,36.5,11.1,69.59,8.34,68.16,320.73,3.12,192.87,0.0,84.07,55.23,97.52,9.88,84.07,701.9,2.68,3147.44,-24.57,54.55,-12.12,169.45,13.02,79.13,3197.76,3.72,316.25
206.0,-0.38,1.59,0.94,0.06,0.24,1.97,0.0,2.29,0.93,-0.77,1.15,0.42,0.07,0.27,1.92,0.01,2.54,0.25,-0.54,2.05,0.12,0.02,0.12,2.59,0.0,3.29,0.03,-164.25,200.74,5.51,1247.87,35.33,364.99,24389.23,4.95,1278.25,-223.33,137.45,3.08,1152.0,33.94,360.78,11163.42,2.39,1161.47,-171.26,141.97,5.26,4443.12,66.66,313.23,34893.31,2.12,4470.81,-31.67,36.5,11.06,68.63,8.28,68.16,310.92,3.16,191.04,0.0,84.07,55.33,101.29,10.06,84.07,772.55,2.7,3163.04,-24.57,54.55,-11.91,178.51,13.36,79.13,3403.19,3.59,320.24
207.0,-0.38,1.59,0.94,0.06,0.24,1.97,0.0,2.29,0.93,-0.77,1.15,0.41,0.07,0.27,1.92,0.01,2.54,0.25,-0.54,2.05,0.12,0.01,0.12,2.59,0.0,3.38,0.03,-164.25,200.74,5.61,1243.48,35.26,364.99,24146.63,4.98,1275.01,-223.33,137.45,3.28,1150.0,33.91,360.78,10513.08,2.39,1160.73,-171.26,141.97,5.14,4448.39,66.7,313.23,36345.68,2.11,4474.82,-31.67,36.5,11.28,74.66,8.64,68.16,418.48,3.3,201.8,0.0,84.07,55.16,96.35,9.82,84.07,704.39,2.74,3139.08,-24.57,54.55,-11.83,181.35,13.47,79.13,3452.14,3.52,321.41
208.0,-0.38,1.59,0.93,0.06,0.24,1.97,0.0,2.33,0.93,-0.77,1.15,0.42,0.07,0.27,1.92,0.01,2.55,0.25,-0.54,2.05,0.11,0.02,0.12,2.59,0.0,3.36,0.03,-164.25,200.74,6.46,1247.86,35.33,364.99,22508.85,4.9,1289.55,-223.33,137.45,3.49,1144.58,33.83,360.78,9890.27,2.41,1156.78,-171.26,141.97,4.1,4406.21,66.38,313.23,46063.7,2.15,4423.02,-31.67,36.5,11.25,74.33,8.62,68.16,420.89,3.33,200.89,0.0,84.07,55.27,100.52,10.03,84.07,797.72,2.83,3155.11,-24.57,54.55,-11.63,188.55,13.73,79.13,3554.67,3.35,323.9
209.0,-0.38,1.59,0.94,0.06,0.24,1.97,0.0,2.3,0.94,-0.77,1.15,0.42,0.07,0.27,1.92,0.01,2.56,0.25,-0.54,2.05,0.11,0.02,0.12,2.59,0.0,3.36,0.03,-164.25,200.74,6.44,1248.03,35.33,364.99,22555.21,4.9,1289.55,-223.33,137.45,2.86,1141.66,33.79,360.78,11416.05,2.44,1149.85,-171.26,141.97,5.69,4452.72,66.73,313.23,36015.96,2.12,4485.13,-31.67,36.5,11.23,74.06,8.61,68.16,421.48,3.35,200.24,0.0,84.07,55.41,104.79,10.24,84.07,853.57,2.76,3175.59,-24.57,54.55,-11.38,195.86,13.99,79.13,3607.56,3.15,325.38
210.0,-0.38,1.59,0.94,0.06,0.24,1.97,0.0,2.27,0.93,-0.77,1.15,0.42,0.07,0.27,1.92,0.01,2.51,0.25,-0.54,2.05,0.11,0.02,0.12,2.59,0.0,3.36,0.03,-164.25,200.74,6.36,1250.4,35.36,364.99,22821.75,4.89,1290.84,-223.33,137.45,2.36,1145.51,33.85,360.78,12808.0,2.44,1151.06,-171.26,141.97,6.23,4450.44,66.71,313.23,29223.91,2.12,4489.27,-31.67,36.5,11.42,78.54,8.86,68.16,473.64,3.26,209.07,0.0,84.07,55.3,102.13,10.11,84.07,841.17,2.86,3159.86,-24.57,54.55,-11.24,199.23,14.11,79.13,3595.79,3.03,325.68
211.0,-0.38,1.59,0.93,0.06,0.24,1.97,0.0,2.28,0.93,-0.77,1.15,0.42,0.07,0.27,1.92,0.01,2.48,0.25,-0.54,2.05,0.11,0.02,0.12,2.59,0.0,3.29,0.03,-164.25,200.74,7.17,1277.22,35.74,364.99,21745.73,4.7,1328.65,-223.33,137.45,3.1,1133.68,33.67,360.78,11436.68,2.44,1143.31,-171.26,141.97,5.13,4443.19,66.66,313.23,40540.03,2.13,4469.51,-31.67,36.5,11.46,79.1,8.89,68.16,471.52,3.21,210.47,0.0,84.07,55.36,104.18,10.21,84.07,871.64,2.83,3168.98,-24.57,54.55,-11.02,206.02,14.35,79.13,3638.75,2.87,327.4
212.0,-0.38,1.59,0.94,0.06,0.25,1.97,0.0,2.23,0.94,-0.77,1.15,0.43,0.07,0.27,1.92,0.0,2.46,0.26,-0.54,2.05,0.11,0.02,0.12,2.59,0.0,3.31,0.03,-164.25,200.74,7.17,1277.26,35.74,364.99,21748.98,4.7,1328.68,-223.33,137.45,2.59,1130.76,33.63,360.78,12832.32,2.47,1137.46,-171.26,141.97,6.47,4412.79,66.43,313.23,29271.0,2.14,4454.68,-31.67,36.5,11.47,79.17,8.9,68.16,468.71,3.2,210.84,0.0,84.07,55.55,109.0,10.44,84.07,921.73,2.74,3194.43,-24.57,54.55,-10.7,213.46,14.61,79.13,3648.84,2.7,327.89
213.0,-0.38,1.59,0.94,0.06,0.25,1.97,0.0,2.22,0.94,-0.77,1.15,0.43,0.08,0.28,1.92,0.01,2.42,0.26,-0.54,2.05,0.11,0.02,0.12,2.59,0.0,3.32,0.03,-164.25,200.74,7.46,1248.86,35.34,364.99,22754.44,4.81,1304.58,-223.33,137.45,2.45,1135.04,33.69,360.78,13197.64,2.46,1141.03,-171.26,141.97,6.91,4435.55,66.6,313.23,24551.11,2.12,4483.3,-31.67,36.5,11.69,83.13,9.12,68.16,495.92,3.07,219.73,0.0,84.07,55.54,108.88,10.43,84.07,923.53,2.75,3193.29,-24.57,54.55,-10.46,216.94,14.73,79.13,3569.23,2.57,326.45
214.0,-0.38,1.59,0.94,0.06,0.25,1.97,0.0,2.18,0.94,-0.77,1.15,0.43,0.08,0.28,1.92,0.0,2.36,0.27,-0.54,2.05,0.11,0.02,0.12,2.59,0.0,3.29,0.03,-164.25,200.74,7.71,1264.02,35.55,364.99,22561.59,4.7,1323.49,-223.33,137.45,3.07,1136.32,33.71,360.78,11679.92,2.43,1145.77,-171.26,141.97,4.69,4519.15,67.22,313.23,24662.3,2.15,4541.15,-31.67,36.5,11.79,84.02,9.17,68.16,478.18,2.99,223.09,0.0,84.07,55.71,111.77,10.57,84.07,914.73,2.62,3215.71,-24.57,54.55,-10.2,220.48,14.85,79.13,3477.63,2.44,324.53
215.0,-0.38,1.59,0.94,0.06,0.25,1.97,0.0,2.14,0.95,-0.77,1.15,0.44,0.08,0.28,1.92,0.0,2.35,0.27,-0.54,2.05,0.11,0.02,0.12,2.59,0.0,3.3,0.03,-164.25,200.74,7.43,1275.45,35.71,364.99,23245.7,4.64,1330.6,-223.33,137.45,2.37,1137.19,33.72,360.78,13206.22,2.45,1142.79,-171.26,141.97,5.96,4471.91,66.87,313.23,13968.13,2.17,4507.46,-31.67,36.5,11.85,83.59,9.14,68.16,467.47,3.0,223.95,0.0,84.07,55.97,116.02,10.77,84.07,921.84,2.51,3249.15,-24.57,54.55,-9.83,228.13,15.1,79.13,3473.88,2.31,324.72
216.0,-0.38,1.59,0.94,0.06,0.25,1.97,0.0,2.13,0.95,-0.77,1.15,0.44,0.08,0.28,1.92,0.0,2.31,0.27,-0.54,2.05,0.12,0.01,0.12,2.59,0.0,3.38,0.03,-164.25,200.74,7.03,1294.29,35.98,364.99,23961.63,4.55,1343.66,-223.33,137.45,2.29,1140.51,33.77,360.78,13374.44,2.45,1145.74,-171.26,141.97,5.97,4472.29,66.88,313.23,13904.21,2.17,4507.92,-31.67,36.5,12.05,86.56,9.3,68.16,469.22,2.88,231.81,0.0,84.07,56.12,116.34,10.79,84.07,879.67,2.46,3265.6,-24.57,54.55,-9.5,233.4,15.28,79.13,3399.0,2.19,323.73
217.0,-0.38,1.59,0.94,0.06,0.25,1.97,0.0,2.07,0.95,-0.77,1.15,0.44,0.08,0.28,1.92,0.0,2.26,0.27,-0.54,2.05,0.11,0.01,0.12,2.59,0.0,3.42,0.03,-164.25,200.74,6.49,1238.04,35.19,364.99,21166.8,4.75,1280.19,-223.33,137.45,3.04,1153.76,33.97,360.78,12027.33,2.39,1163.02,-171.26,141.97,3.95,4585.26,67.71,313.23,16047.19,2.19,4600.87,-31.67,36.5,12.22,86.58,9.3,68.16,437.54,2.83,235.85,0.0,84.07,56.36,118.91,10.9,84.07,850.13,2.36,3295.65,-24.57,54.55,-9.13,239.22,15.47,79.13,3332.91,2.08,322.53
218.0,-0.38,1.59,0.94,0.06,0.25,1.97,0.0,2.08,0.95,-0.77,1.15,0.44,0.08,0.28,1.92,0.0,2.26,0.28,-0.54,2.05,0.12,0.01,0.12,2.59,0.0,3.37,0.03,-164.25,200.74,6.29,1240.16,35.22,364.99,21891.14,4.75,1279.69,-223.33,137.45,2.59,1141.98,33.79,360.78,13123.45,2.45,1148.69,-171.26,141.97,4.59,4538.34,67.37,313.23,10546.02,2.22,4559.41,-31.67,36.5,12.37,83.58,9.14,68.16,452.73,2.87,236.53,0.0,84.07,56.64,122.98,11.09,84.07,847.55,2.28,3330.97,-24.57,54.55,-8.68,250.66,15.83,79.13,3448.52,2.04,325.94
219.0,-0.38,1.59,0.94,0.06,0.25,1.97,0.0,2.09,0.95,-0.77,1.15,0.44,0.08,0.28,1.92,0.0,2.23,0.27,-0.54,2.05,0.12,0.01,0.12,2.59,0.0,3.36,0.03,-164.25,200.74,6.02,1259.44,35.49,364.99,21802.81,4.65,1295.68,-223.33,137.45,2.56,1143.96,33.82,360.78,13131.42,2.44,1150.52,-171.26,141.97,4.75,4555.62,67.5,313.23,9856.01,2.21,4578.14,-31.67,36.5,12.59,84.57,9.2,68.16,427.62,2.78,243.11,0.0,84.07,56.87,124.46,11.16,84.07,799.79,2.2,3358.35,-24.57,54.55,-8.32,256.72,16.02,79.13,3367.76,1.95,325.96
220.0,-0.38,1.59,0.95,0.07,0.26,1.97,0.01,2.19,0.97,-0.77,1.15,0.44,0.08,0.28,1.92,0.0,2.24,0.27,-0.54,2.05,0.12,0.02,0.12,2.59,0.0,3.24,0.03,-164.25,200.74,6.44,1254.83,35.42,364.99,20432.88,4.66,1296.35,-223.33,137.45,3.28,1182.96,34.39,360.78,13131.21,2.37,1193.74,-171.26,141.97,3.69,4694.27,68.51,313.23,7965.19,2.17,4707.86,-31.67,36.5,12.92,83.06,9.11,68.16,438.46,2.68,249.97,0.0,84.07,57.06,125.35,11.2,84.07,748.44,2.14,3381.33,-24.57,54.55,-7.99,261.54,16.17,79.13,3253.31,1.86,325.32
221.0,-0.38,1.59,0.95,0.07,0.26,1.97,0.01,2.2,0.96,-0.77,1.15,0.44,0.08,0.28,1.92,0.0,2.21,0.28,-0.54,2.05,0.12,0.02,0.12,2.59,0.0,3.24,0.03,-164.25,200.74,5.55,1227.99,35.04,364.99,21370.49,4.84,1258.78,-223.33,137.45,2.86,1177.24,34.31,360.78,14382.85,2.41,1185.42,-171.26,141.97,4.17,4650.63,68.2,313.23,4448.31,2.2,4668.02,-31.67,36.5,12.99,82.05,9.06,68.16,433.36,2.71,250.75,0.0,84.07,57.46,127.14,11.28,84.07,762.03,2.1,3428.8,-24.57,54.55,-7.54,271.75,16.48,79.13,3293.55,1.82,328.61
222.0,-0.38,1.59,0.95,0.06,0.25,1.97,0.01,2.25,0.96,-0.77,1.15,0.44,0.08,0.29,1.92,0.0,2.19,0.27,-0.54,2.05,0.12,0.01,0.12,2.59,0.0,3.08,0.03,-164.25,200.74,5.71,1225.25,35.0,364.99,20822.91,4.85,1257.85,-223.33,137.45,2.99,1169.38,34.2,360.78,14253.74,2.42,1178.35,-171.26,141.97,3.76,4553.65,67.48,313.23,-7092.45,2.17,4567.76,-31.67,36.5,13.17,82.4,9.08,68.16,404.06,2.65,255.8,0.0,84.07,57.78,127.14,11.28,84.07,721.26,2.04,3465.49,-24.57,54.55,-7.2,274.71,16.57,79.13,3132.41,1.74,326.56
223.0,-0.38,1.59,0.95,0.06,0.25,1.97,0.01,2.26,0.96,-0.77,1.15,0.44,0.08,0.29,1.92,0.0,2.17,0.27,-0.54,2.05,0.12,0.01,0.12,2.59,0.0,3.07,0.03,-164.25,200.74,5.8,1224.62,34.99,364.99,20502.84,4.85,1258.24,-223.33,137.45,2.76,1156.66,34.01,360.78,14520.96,2.47,1164.28,-171.26,141.97,3.86,4537.54,67.36,313.23,-6529.21,2.17,4552.42,-31.67,36.5,13.5,81.22,9.01,68.16,417.35,2.55,263.48,0.0,84.07,58.04,126.77,11.26,84.07,667.27,2.0,3495.82,-24.57,54.55,-6.93,274.51,16.57,79.13,2958.56,1.7,322.51
224.0,-0.38,1.59,0.94,0.07,0.26,1.97,0.01,2.24,0.96,-0.77,1.15,0.43,0.08,0.29,1.92,0.0,2.14,0.27,-0.54,2.05,0.12,0.01,0.12,2.59,0.0,3.08,0.03,-164.25,200.74,5.89,1227.6,35.04,364.99,20241.07,4.82,1262.29,-223.33,137.45,2.24,1108.63,33.3,360.78,12628.56,2.49,1113.64,-171.26,141.97,3.92,4533.37,67.33,313.23,-7237.84,2.18,4548.77,-31.67,36.5,13.52,81.09,9.0,68.16,413.71,2.55,263.83,0.0,84.07,58.44,129.18,11.37,84.07,678.36,1.97,3543.88,-24.57,54.55,-6.59,276.32,16.62,79.13,2783.09,1.64,319.8
225.0,-0.38,1.59,0.95,0.07,0.26,1.97,0.01,2.2,0.96,-0.77,1.15,0.43,0.08,0.29,1.92,0.0,2.15,0.27,-0.54,2.05,0.12,0.01,0.12,2.59,0.0,3.14,0.03,-164.25,200.74,5.71,1224.21,34.99,364.99,20854.1,4.86,1256.77,-223.33,137.45,2.23,1108.95,33.3,360.78,12636.1,2.49,1113.93,-171.26,141.97,3.77,4497.61,67.06,313.23,-11567.85,2.16,4511.84,-31.67,36.5,13.62,80.07,8.95,68.16,399.66,2.58,265.54,0.0,84.07,58.82,132.06,11.49,84.07,683.11,1.95,3591.34,-24.57,54.55,-6.22,277.23,16.65,79.13,2604.68,1.59,315.93
226.0,-0.38,1.59,0.94,0.06,0.25,1.97,0.01,2.27,0.95,-0.77,1.15,0.42,0.09,0.29,1.92,0.0,2.17,0.27,-0.54,2.05,0.12,0.01,0.12,2.59,0.0,3.19,0.03,-164.25,200.74,5.66,1223.34,34.98,364.99,20997.46,4.87,1255.41,-223.33,137.45,2.05,1100.51,33.17,360.78,12935.32,2.53,1104.7,-171.26,141.97,4.67,4385.9,66.23,313.23,-11275.0,2.21,4407.7,-31.67,36.5,13.94,81.33,9.02,68.16,407.69,2.52,275.62,0.0,84.07,59.02,130.47,11.42,84.07,633.28,1.95,3613.72,-24.57,54.55,-5.91,275.68,16.6,79.13,2427.48,1.55,310.58
227.0,-0.38,1.59,0.94,0.06,0.25,1.97,0.01,2.25,0.95,-0.77,1.15,0.42,0.09,0.29,1.92,0.0,2.2,0.26,-0.54,2.05,0.12,0.01,0.12,2.59,0.0,3.14,0.03,-164.25,200.74,5.61,1223.88,34.98,364.99,21180.96,4.87,1255.38,-223.33,137.45,2.11,1099.36,33.16,360.78,12765.85,2.53,1103.79,-171.26,141.97,3.82,4357.17,66.01,313.23,-2420.16,2.23,4371.79,-31.67,36.5,14.04,80.37,8.96,68.16,392.37,2.54,277.52,0.0,84.07,59.37,132.41,11.51,84.07,611.11,1.91,3657.24,-24.57,54.55,-5.49,277.44,16.66,79.13,2269.47,1.5,307.56
228.0,-0.38,1.59,0.95,0.06,0.25,1.97,0.01,2.22,0.96,-0.77,1.15,0.42,0.08,0.29,1.92,0.0,2.24,0.26,-0.54,2.05,0.13,0.01,0.12,2.59,0.0,3.19,0.03,-164.25,200.74,5.49,1225.58,35.01,364.99,21620.66,4.86,1255.69,-223.33,137.45,1.84,1109.67,33.31,360.78,13291.33,2.51,1113.06,-171.26,141.97,4.97,4482.15,66.95,313.23,-3589.28,2.18,4506.8,-31.67,36.5,14.16,79.2,8.9,68.16,377.02,2.56,279.66,0.0,84.07,59.62,135.16,11.63,84.07,572.41,1.86,3690.29,-24.57,54.55,-5.08,279.07,16.71,79.13,2104.96,1.46,304.85
229.0,-0.38,1.59,0.94,0.06,0.25,1.97,0.01,2.24,0.95,-0.77,1.15,0.41,0.08,0.28,1.92,0.0,2.07,0.25,-0.54,2.05,0.13,0.01,0.12,2.59,0.0,3.23,0.03,-164.25,200.74,4.87,1212.24,34.82,364.99,23067.45,4.99,1235.99,-223.33,137.45,1.75,1111.21,33.33,360.78,13566.49,2.5,1114.28,-171.26,141.97,5.5,4467.68,66.84,313.23,-10062.39,2.2,4497.9,-31.67,36.5,14.34,81.96,9.05,68.16,380.15,2.47,287.47,0.0,84.07,59.76,133.72,11.56,84.07,536.3,1.87,3704.73,-24.57,54.55,-4.79,278.19,16.68,79.13,1926.31,1.43,301.14
230.0,-0.38,1.59,0.94,0.06,0.25,1.97,0.01,2.25,0.95,-0.77,1.15,0.41,0.08,0.28,1.92,0.0,2.08,0.25,-0.54,2.05,0.12,0.01,0.12,2.59,0.0,3.33,0.03,-164.25,200.74,4.39,1195.32,34.57,364.99,24078.03,5.14,1214.62,-223.33,137.45,1.83,1113.63,33.37,360.78,13358.2,2.49,1116.98,-171.26,141.97,3.45,4372.11,66.12,313.23,-7769.7,2.18,4383.99,-31.67,36.5,14.43,81.73,9.04,68.16,359.81,2.46,289.91,0.0,84.07,60.02,134.57,11.6,84.07,477.54,1.83,3736.54,-24.57,54.55,-4.41,279.25,16.71,79.13,1747.9,1.39,298.71
231.0,-0.38,1.59,0.94,0.06,0.25,1.97,0.01,2.2,0.95,-0.77,1.15,0.41,0.08,0.28,1.92,0.0,2.07,0.25,-0.54,2.05,0.13,0.01,0.11,2.59,0.0,3.37,0.03,-164.25,200.74,4.29,1194.27,34.56,364.99,24447.94,5.15,1212.65,-223.33,137.45,1.63,1120.05,33.47,360.78,13858.85,2.47,1122.71,-171.26,141.97,5.51,4359.58,66.03,313.23,-12842.27,2.18,4389.9,-31.67,36.5,14.47,81.46,9.03,68.16,351.67,2.47,290.78,0.0,84.07,60.38,133.89,11.57,84.07,453.56,1.79,3779.9,-24.57,54.55,-4.04,279.73,16.73,79.13,1565.8,1.36,296.01
232.0,-0.38,1.59,0.94,0.07,0.26,1.97,0.01,2.19,0.95,-0.77,1.15,0.4,0.08,0.28,1.92,0.0,2.08,0.24,-0.54,2.05,0.13,0.01,0.11,2.59,0.0,3.41,0.03,-164.25,200.74,4.11,1199.83,34.64,364.99,24956.13,5.12,1216.69,-223.33,137.45,1.81,1104.33,33.23,360.78,14275.21,2.49,1107.62,-171.26,141.97,5.33,4344.24,65.91,313.23,-11611.04,2.19,4372.68,-31.67,36.5,14.65,84.32,9.18,68.16,354.47,2.38,299.04,0.0,84.07,60.53,132.42,11.51,84.07,414.28,1.8,3796.06,-24.57,54.55,-3.74,277.92,16.67,79.13,1390.47,1.35,291.87
233.0,-0.38,1.59,0.95,0.06,0.25,1.97,0.01,2.2,0.96,-0.77,1.15,0.41,0.08,0.28,1.92,0.0,2.1,0.25,-0.54,2.05,0.13,0.01,0.11,2.59,0.0,3.41,0.03,-164.25,200.74,5.48,1169.28,34.19,364.99,27109.81,5.07,1199.36,-223.33,137.45,2.25,1089.82,33.01,360.78,13418.65,2.51,1094.87,-171.26,141.97,4.84,4365.1,66.07,313.23,-6161.17,2.17,4388.55,-31.67,36.5,14.88,81.95,9.05,68.16,345.86,2.36,303.47,0.0,84.07,60.81,132.18,11.5,84.07,358.29,1.78,3829.88,-24.57,54.55,-3.37,276.34,16.62,79.13,1213.13,1.32,287.73
234.0,-0.38,1.59,0.95,0.06,0.25,1.97,0.01,2.13,0.97,-0.77,1.15,0.41,0.08,0.28,1.92,0.0,2.1,0.25,-0.54,2.05,0.13,0.01,0.11,2.59,0.0,3.55,0.03,-164.25,200.74,4.94,1128.87,33.6,364.99,26323.89,5.35,1153.29,-223.33,137.45,1.53,1097.3,33.13,360.78,14788.71,2.53,1099.62,-171.26,141.97,5.83,4425.42,66.52,313.23,-14017.21,2.14,4459.42,-31.67,36.5,14.93,81.57,9.03,68.16,337.29,2.37,304.45,0.0,84.07,61.14,132.08,11.49,84.07,317.06,1.75,3869.95,-24.57,54.55,-2.97,278.02,16.67,79.13,1048.05,1.3,286.83
235.0,-0.38,1.59,0.95,0.06,0.25,1.97,0.01,2.17,0.96,-0.77,1.15,0.4,0.08,0.28,1.92,0.0,2.1,0.24,-0.54,2.05,0.13,0.01,0.11,2.59,0.0,3.57,0.03,-164.25,200.74,4.22,1149.86,33.91,364.99,27393.02,5.26,1167.68,-223.33,137.45,1.57,1095.71,33.1,360.78,14671.85,2.53,1098.19,-171.26,141.97,5.97,4443.98,66.66,313.23,-13924.33,2.13,4479.58,-31.67,36.5,15.11,82.09,9.06,68.16,308.87,2.32,310.29,0.0,84.07,61.32,130.24,11.41,84.07,273.97,1.77,3890.68,-24.57,54.55,-2.69,275.7,16.6,79.13,886.85,1.3,282.96
236.0,-0.38,1.59,0.95,0.06,0.25,1.97,0.01,2.14,0.97,-0.77,1.15,0.41,0.08,0.28,1.92,0.0,2.08,0.25,-0.54,2.05,0.13,0.01,0.11,2.59,0.0,3.6,0.03,-164.25,200.74,3.99,1120.26,33.47,364.99,25317.01,5.37,1136.17,-223.33,137.45,1.95,1107.18,33.27,360.78,13821.27,2.48,1110.99,-171.26,141.97,4.39,4545.31,67.42,313.23,-7341.53,2.1,4564.61,-31.67,36.5,15.33,79.33,8.91,68.16,308.29,2.29,314.4,0.0,84.07,61.64,126.68,11.26,84.07,261.46,1.72,3926.05,-24.57,54.55,-2.41,274.0,16.55,79.13,716.25,1.29,279.79
237.0,-0.38,1.59,0.96,0.07,0.26,1.97,0.01,2.08,0.98,-0.77,1.15,0.41,0.08,0.28,1.92,0.0,2.09,0.25,-0.54,2.05,0.13,0.01,0.11,2.59,0.0,3.58,0.03,-164.25,200.74,3.19,1083.89,32.92,364.99,25442.04,5.67,1094.07,-223.33,137.45,1.69,1096.64,33.12,360.78,14316.21,2.53,1099.5,-171.26,141.97,4.79,4553.55,67.48,313.23,-12432.92,2.1,4576.45,-31.67,36.5,15.34,79.1,8.89,68.16,308.92,2.3,314.54,0.0,84.07,61.97,126.94,11.27,84.07,227.3,1.7,3967.49,-24.57,54.55,-2.03,274.44,16.57,79.13,541.18,1.28,278.54
